dTect V4.2
Well Log
do 03 nov 2011, 18:15:14
!
Name: P-Impedance_rel
Unit of Measure: Kg/m2s
Header info: No
Storage type: Ascii
!
30.15	-3257.41
30.3	-3257.41
30.45	-3257.41
30.6	-3257.41
30.75	-3257.41
30.9	-3257.41
31.05	-3038.22
31.2	-2880.47
31.35	-2849.81
31.5	-2849.81
31.65	-2849.81
31.8	-2849.81
31.95	-2849.81
32.1	-2849.81
32.25	-2849.81
32.4	-2849.81
32.55	-2849.81
32.7	-2849.81
32.85	-2849.81
33	-2849.81
33.15	-2849.81
33.3	-2849.81
33.45	-2849.81
33.6	-2849.81
33.75	-2849.81
33.9	-2849.81
34.05	-2849.81
34.2	-2849.81
34.35	-2849.81
34.5	-2849.81
34.65	-2849.81
34.8	-2849.81
34.95	-2392.97
35.1	-1439.69
35.25	-1332.47
35.4	-1332.47
35.55	-1332.47
35.7	-1332.47
35.85	-1332.47
36	-1332.47
36.15	-1332.47
36.3	-1332.47
36.45	-1332.47
36.6	-1332.47
36.75	-1332.47
36.9	-1332.47
37.05	-1332.47
37.2	-1332.47
37.35	-1332.47
37.5	-1332.47
37.65	-1332.47
37.8	-1332.47
37.95	-1332.47
38.1	-1332.47
38.25	-1332.47
38.4	-1332.47
38.55	-1332.47
38.7	-1332.47
38.85	-1250.88
39	-2.8917
39.15	105.153
39.3	105.153
39.45	105.153
39.6	105.153
39.75	105.153
39.9	105.153
40.05	105.153
40.2	105.153
40.35	105.153
40.5	105.153
40.65	105.153
40.8	105.153
40.95	105.153
41.1	105.153
41.25	105.153
41.4	105.153
41.55	105.153
41.7	105.153
41.85	105.153
42	105.153
42.15	105.153
42.3	105.153
42.45	105.153
42.6	105.153
42.75	189.515
42.9	577.325
43.05	882.353
43.2	882.353
43.35	882.353
43.5	882.353
43.65	882.353
43.8	882.353
43.95	882.353
44.1	882.353
44.25	882.353
44.4	882.353
44.55	882.353
44.7	882.353
44.85	882.353
45	882.353
45.15	882.353
45.3	882.353
45.45	882.353
45.6	882.353
45.75	882.353
45.9	882.353
46.05	882.353
46.2	882.353
46.35	882.353
46.5	882.353
46.65	901.748
46.8	1100.63
46.95	1430.24
47.1	1430.24
47.25	1430.24
47.4	1430.24
47.55	1430.24
47.7	1430.24
47.85	1430.24
48	1430.24
48.15	1430.24
48.3	1430.24
48.45	1430.24
48.6	1430.24
48.75	1430.24
48.9	1430.24
49.05	1430.24
49.2	1430.24
49.35	1430.24
49.5	1430.24
49.65	1430.24
49.8	1430.24
49.95	1430.24
50.1	1430.24
50.25	1430.24
50.4	1430.24
50.55	1430.24
50.7	1590.15
50.85	1849.45
51	1940.61
51.15	1940.61
51.3	1940.61
51.45	1940.61
51.6	1940.61
51.75	1940.61
51.9	1940.61
52.05	1940.61
52.2	1940.61
52.35	1940.61
52.5	1940.61
52.65	1940.61
52.8	1940.61
52.95	1940.61
53.1	1940.61
53.25	1940.61
53.4	1940.61
53.55	1940.61
53.7	1940.61
53.85	1940.61
54	1940.61
54.15	1940.61
54.3	1940.61
54.45	1940.61
54.6	1960.06
54.75	2026.82
54.9	2069.64
55.05	2069.64
55.2	2069.64
55.35	2069.64
55.5	2069.64
55.65	2069.64
55.8	2069.64
55.95	2069.64
56.1	2069.64
56.25	2069.64
56.4	2069.64
56.55	2069.64
56.7	2069.64
56.85	2069.64
57	2069.64
57.15	2069.64
57.3	2069.64
57.45	2069.64
57.6	2069.64
57.75	2069.64
57.9	2069.64
58.05	2069.64
58.2	2069.64
58.35	2069.64
58.5	2069.64
58.65	1961.63
58.8	1882.76
58.95	1871.2
59.1	1871.2
59.25	1871.2
59.4	1871.2
59.55	1871.2
59.7	1871.2
59.85	1871.2
60	1871.2
60.15	1871.2
60.3	1871.2
60.45	1871.2
60.6	1871.2
60.75	1871.2
60.9	1871.2
61.05	1871.2
61.2	1871.2
61.35	1871.2
61.5	1871.2
61.65	1871.2
61.8	1871.2
61.95	1871.2
62.1	1871.2
62.25	1871.2
62.4	1871.2
62.55	1817.35
62.7	1726.71
62.85	1696.68
63	1696.68
63.15	1696.68
63.3	1696.68
63.45	1696.68
63.6	1696.68
63.75	1696.68
63.9	1696.68
64.05	1696.68
64.2	1696.68
64.35	1696.68
64.5	1696.68
64.65	1696.68
64.8	1696.68
64.95	1696.68
65.1	1696.68
65.25	1696.68
65.4	1696.68
65.55	1696.68
65.7	1696.68
65.85	1696.68
66	1696.68
66.15	1696.68
66.3	1696.68
66.45	1691.41
66.6	1476.43
66.75	1403.89
66.9	1403.89
67.05	1403.89
67.2	1403.89
67.35	1403.89
67.5	1403.89
67.65	1403.89
67.8	1403.89
67.95	1403.89
68.1	1403.89
68.25	1403.89
68.4	1403.89
68.55	1403.89
68.7	1403.89
68.85	1403.89
69	1403.89
69.15	1403.89
69.3	1403.89
69.45	1403.89
69.6	1403.89
69.75	1403.89
69.9	1403.89
70.05	1403.89
70.2	1403.89
70.35	1403.89
70.5	1106.91
70.65	835.101
70.8	779.724
70.95	779.724
71.1	779.724
71.25	779.724
71.4	779.724
71.55	779.724
71.7	779.724
71.85	779.724
72	779.724
72.15	779.724
72.3	779.724
72.45	779.724
72.6	779.724
72.75	779.724
72.9	779.724
73.05	779.724
73.2	779.724
73.35	779.724
73.5	779.724
73.65	779.724
73.8	779.724
73.95	779.724
74.1	779.724
74.25	779.724
74.4	685.148
74.55	265.223
74.7	162.561
74.85	162.561
75	162.561
75.15	162.561
75.3	162.561
75.45	162.561
75.6	162.561
75.75	162.561
75.9	162.561
76.05	162.561
76.2	162.561
76.35	162.561
76.5	162.561
76.65	162.561
76.8	162.561
76.95	162.561
77.1	162.561
77.25	162.561
77.4	162.561
77.55	162.561
77.7	162.561
77.85	162.561
78	162.561
78.15	162.561
78.3	162.561
78.45	-80.4019
78.6	-211.146
78.75	-230.284
78.9	-230.284
79.05	-230.284
79.2	-230.284
79.35	-230.284
79.5	-230.284
79.65	-230.284
79.8	-230.284
79.95	-230.284
80.1	-230.284
80.25	-230.284
80.4	-230.284
80.55	-230.284
80.7	-230.284
80.85	-230.284
81	-230.284
81.15	-230.284
81.3	-230.284
81.45	-230.284
81.6	-230.284
81.75	-230.284
81.9	-230.284
82.05	-230.284
82.2	-230.284
82.35	-366.439
82.5	-645.374
82.65	-715.753
82.8	-715.753
82.95	-715.753
83.1	-715.753
83.25	-715.753
83.4	-715.753
83.55	-715.753
83.7	-715.753
83.85	-715.753
84	-715.753
84.15	-715.753
84.3	-715.753
84.45	-715.753
84.6	-715.753
84.75	-715.753
84.9	-715.753
85.05	-715.753
85.2	-715.753
85.35	-715.753
85.5	-715.753
85.65	-715.753
85.8	-715.753
85.95	-715.753
86.1	-715.753
86.25	-715.753
86.4	-1139.59
86.55	-1307.9
86.7	-1319
86.85	-1319
87	-1319
87.15	-1319
87.3	-1319
87.45	-1319
87.6	-1319
87.75	-1319
87.9	-1319
88.05	-1319
88.2	-1319
88.35	-1319
88.5	-1319
88.65	-1319
88.8	-1319
88.95	-1319
89.1	-1319
89.25	-1319
89.4	-1319
89.55	-1319
89.7	-1319
89.85	-1319
90	-1319
90.15	-1319
90.3	-1426.33
90.45	-1568.44
90.6	-1612.44
90.75	-1612.44
90.9	-1612.44
91.05	-1612.44
91.2	-1612.44
91.35	-1612.44
91.5	-1612.44
91.65	-1612.44
91.8	-1612.44
91.95	-1612.44
92.1	-1612.44
92.25	-1612.44
92.4	-1612.44
92.55	-1612.44
92.7	-1612.44
92.85	-1612.44
93	-1612.44
93.15	-1612.44
93.3	-1612.44
93.45	-1612.44
93.6	-1612.44
93.75	-1612.44
93.9	-1612.44
94.05	-1612.44
94.2	-1611.83
94.35	-1606.71
94.5	-1603.76
94.65	-1603.76
94.8	-1603.76
94.95	-1603.76
95.1	-1603.76
95.25	-1603.76
95.4	-1603.76
95.55	-1603.76
95.7	-1603.76
95.85	-1603.76
96	-1603.76
96.15	-1603.76
96.3	-1603.76
96.45	-1603.76
96.6	-1603.76
96.75	-1603.76
96.9	-1603.76
97.05	-1603.76
97.2	-1603.76
97.35	-1603.76
97.5	-1603.76
97.65	-1603.76
97.8	-1603.76
97.95	-1603.76
98.1	-1603.76
98.25	-1621.58
98.4	-1644.28
98.55	-1651.31
98.7	-1651.31
98.85	-1651.31
99	-1651.31
99.15	-1651.31
99.3	-1651.31
99.45	-1651.31
99.6	-1651.31
99.75	-1651.31
99.9	-1651.31
100.05	-1651.31
100.2	-1651.31
100.35	-1651.31
100.5	-1651.31
100.65	-1651.31
100.8	-1651.31
100.95	-1651.31
101.1	-1651.31
101.25	-1651.31
101.4	-1651.31
101.55	-1651.31
101.7	-1651.31
101.85	-1651.31
102	-1651.31
102.15	-1649.05
102.3	-1640.48
102.45	-1632.8
102.6	-1632.8
102.75	-1632.8
102.9	-1632.8
103.05	-1632.8
103.2	-1632.8
103.35	-1632.8
103.5	-1632.8
103.65	-1632.8
103.8	-1632.8
103.95	-1632.8
104.1	-1632.8
104.25	-1632.8
104.4	-1632.8
104.55	-1632.8
104.7	-1632.8
104.85	-1632.8
105	-1632.8
105.15	-1632.8
105.3	-1632.8
105.45	-1632.8
105.6	-1632.8
105.75	-1632.8
105.9	-1632.8
106.05	-1632.8
106.2	-1530.17
106.35	-1296.94
106.5	-1258.03
106.65	-1258.03
106.8	-1258.03
106.95	-1258.03
107.1	-1258.03
107.25	-1258.03
107.4	-1258.03
107.55	-1258.03
107.7	-1258.03
107.85	-1258.03
108	-1258.03
108.15	-1258.03
108.3	-1258.03
108.45	-1258.03
108.6	-1258.03
108.75	-1258.03
108.9	-1258.03
109.05	-1258.03
109.2	-1258.03
109.35	-1258.03
109.5	-1258.03
109.65	-1258.03
109.8	-1258.03
109.95	-1258.03
110.1	-1216.56
110.25	-984.444
110.4	-746.421
110.55	-746.421
110.7	-746.421
110.85	-746.421
111	-746.421
111.15	-746.421
111.3	-746.421
111.45	-746.421
111.6	-746.421
111.75	-746.421
111.9	-746.421
112.05	-746.421
112.2	-746.421
112.35	-746.421
112.5	-746.421
112.65	-746.421
112.8	-746.421
112.95	-746.421
113.1	-746.421
113.25	-746.421
113.4	-746.421
113.55	-746.421
113.7	-746.421
113.85	-746.421
114	-746.063
114.15	-729.002
114.3	-346.155
114.45	-346.155
114.6	-346.155
114.75	-346.155
114.9	-346.155
115.05	-346.155
115.2	-346.155
115.35	-346.155
115.5	-346.155
115.65	-346.155
115.8	-346.155
115.95	-346.155
116.1	-346.155
116.25	-346.155
116.4	-346.155
116.55	-346.155
116.7	-346.155
116.85	-346.155
117	-346.155
117.15	-346.155
117.3	-346.155
117.45	-346.155
117.6	-346.155
117.75	-346.155
117.9	-346.155
118.05	-346.155
118.2	-110.782
118.35	84.1002
118.5	111.149
118.65	111.149
118.8	111.149
118.95	111.149
119.1	111.149
119.25	111.149
119.4	111.149
119.55	111.149
119.7	111.149
119.85	111.149
120	111.149
120.15	111.149
120.3	111.149
120.45	111.149
120.6	111.149
120.75	111.149
120.9	111.149
121.05	111.149
121.2	111.149
121.35	111.149
121.5	111.149
121.65	111.149
121.8	111.149
121.95	111.149
122.1	178.556
122.25	507.684
122.4	657.386
122.55	657.386
122.7	657.386
122.85	657.386
123	657.386
123.15	657.386
123.3	657.386
123.45	657.386
123.6	657.386
123.75	657.386
123.9	657.386
124.05	657.386
124.2	657.386
124.35	657.386
124.5	657.386
124.65	657.386
124.8	657.386
124.95	657.386
125.1	657.386
125.25	657.386
125.4	657.386
125.55	657.386
125.7	657.386
125.85	657.386
126	657.386
126.15	796.1
126.3	993.514
126.45	1044.8
126.6	1044.8
126.75	1044.8
126.9	1044.8
127.05	1044.8
127.2	1044.8
127.35	1044.8
127.5	1044.8
127.65	1044.8
127.8	1044.8
127.95	1044.8
128.1	1044.8
128.25	1044.8
128.4	1044.8
128.55	1044.8
128.7	1044.8
128.85	1044.8
129	1044.8
129.15	1044.8
129.3	1044.8
129.45	1044.8
129.6	1044.8
129.75	1044.8
129.9	1044.8
130.05	1065.62
130.2	1165.26
130.35	1286.48
130.5	1286.48
130.65	1286.48
130.8	1286.48
130.95	1286.48
131.1	1286.48
131.25	1286.48
131.4	1286.48
131.55	1286.48
131.7	1286.48
131.85	1286.48
132	1286.48
132.15	1286.48
132.3	1286.48
132.45	1286.48
132.6	1286.48
132.75	1286.48
132.9	1286.48
133.05	1286.48
133.2	1286.48
133.35	1286.48
133.5	1286.48
133.65	1286.48
133.8	1286.48
133.95	1286.48
134.1	1287.65
134.25	1481.1
134.4	1497.9
134.55	1497.9
134.7	1497.9
134.85	1497.9
135	1497.9
135.15	1497.9
135.3	1497.9
135.45	1497.9
135.6	1497.9
135.75	1497.9
135.9	1497.9
136.05	1497.9
136.2	1497.9
136.35	1497.9
136.5	1497.9
136.65	1497.9
136.8	1497.9
136.95	1497.9
137.1	1497.9
137.25	1497.9
137.4	1497.9
137.55	1497.9
137.7	1497.9
137.85	1497.9
138	1497.9
138.15	1496.23
138.3	1494.04
138.45	1493.48
138.6	1493.48
138.75	1493.48
138.9	1493.48
139.05	1493.48
139.2	1493.48
139.35	1493.48
139.5	1493.48
139.65	1493.48
139.8	1493.48
139.95	1493.48
140.1	1493.48
140.25	1493.48
140.4	1493.48
140.55	1493.48
140.7	1493.48
140.85	1493.48
141	1493.48
141.15	1493.48
141.3	1493.48
141.45	1493.48
141.6	1493.48
141.75	1493.48
141.9	1493.48
142.05	1482.79
142.2	1362.41
142.35	1238.64
142.5	1238.64
142.65	1238.64
142.8	1238.64
142.95	1238.64
143.1	1238.64
143.25	1238.64
143.4	1238.64
143.55	1238.64
143.7	1238.64
143.85	1238.64
144	1238.64
144.15	1238.64
144.3	1238.64
144.45	1238.64
144.6	1238.64
144.75	1238.64
144.9	1238.64
145.05	1238.64
145.2	1238.64
145.35	1238.64
145.5	1238.64
145.65	1238.64
145.8	1238.64
145.95	1238.64
146.1	1212.38
146.25	1087.36
146.4	1028.53
146.55	1028.53
146.7	1028.53
146.85	1028.53
147	1028.53
147.15	1028.53
147.3	1028.53
147.45	1028.53
147.6	1028.53
147.75	1028.53
147.9	1028.53
148.05	1028.53
148.2	1028.53
148.35	1028.53
148.5	1028.53
148.65	1028.53
148.8	1028.53
148.95	1028.53
149.1	1028.53
149.25	1028.53
149.4	1028.53
149.55	1028.53
149.7	1028.53
149.85	1028.53
150	1028.53
150.15	981.75
150.3	827.6
150.45	806.612
150.6	806.612
150.75	806.612
150.9	806.612
151.05	806.612
151.2	806.612
151.35	806.612
151.5	806.612
151.65	806.612
151.8	806.612
151.95	806.612
152.1	806.612
152.25	806.612
152.4	806.612
152.55	806.612
152.7	806.612
152.85	806.612
153	806.612
153.15	806.612
153.3	806.612
153.45	806.612
153.6	806.612
153.75	806.612
153.9	806.612
154.05	806.612
154.2	567.533
154.35	326.812
154.5	281.754
154.65	281.754
154.8	281.754
154.95	281.754
155.1	281.754
155.25	281.754
155.4	281.754
155.55	281.754
155.7	281.754
155.85	281.754
156	281.754
156.15	281.754
156.3	281.754
156.45	281.754
156.6	281.754
156.75	281.754
156.9	281.754
157.05	281.754
157.2	281.754
157.35	281.754
157.5	281.754
157.65	281.754
157.8	281.754
157.95	281.754
158.1	235.231
158.25	-0.4094
158.4	-261.14
158.55	-261.14
158.7	-261.14
158.85	-261.14
159	-261.14
159.15	-261.14
159.3	-261.14
159.45	-261.14
159.6	-261.14
159.75	-261.14
159.9	-261.14
160.05	-261.14
160.2	-261.14
160.35	-261.14
160.5	-261.14
160.65	-261.14
160.8	-261.14
160.95	-261.14
161.1	-261.14
161.25	-261.14
161.4	-261.14
161.55	-261.14
161.7	-261.14
161.85	-261.14
162	-261.14
162.15	-261.14
162.3	-398.755
162.45	-426.043
162.6	-427.039
162.75	-427.039
162.9	-427.039
163.05	-427.039
163.2	-427.039
163.35	-427.039
163.5	-427.039
163.65	-427.039
163.8	-427.039
163.95	-427.039
164.1	-427.039
164.25	-427.039
164.4	-427.039
164.55	-427.039
164.7	-427.039
164.85	-427.039
165	-427.039
165.15	-427.039
165.3	-427.039
165.45	-427.039
165.6	-427.039
165.75	-427.039
165.9	-427.039
166.05	-427.039
166.2	-462.384
166.35	-528.53
166.5	-560.697
166.65	-560.697
166.8	-560.697
166.95	-560.697
167.1	-560.697
167.25	-560.697
167.4	-560.697
167.55	-560.697
167.7	-560.697
167.85	-560.697
168	-560.697
168.15	-560.697
168.3	-560.697
168.45	-560.697
168.6	-560.697
168.75	-560.697
168.9	-560.697
169.05	-560.697
169.2	-560.697
169.35	-560.697
169.5	-560.697
169.65	-560.697
169.8	-560.697
169.95	-560.697
170.1	-565.11
170.25	-638.31
170.4	-958.383
170.55	-958.383
170.7	-958.383
170.85	-958.383
171	-958.383
171.15	-958.383
171.3	-958.383
171.45	-958.383
171.6	-958.383
171.75	-958.383
171.9	-958.383
172.05	-958.383
172.2	-958.383
172.35	-958.383
172.5	-958.383
172.65	-958.383
172.8	-958.383
172.95	-958.383
173.1	-958.383
173.25	-958.383
173.4	-958.383
173.55	-958.383
173.7	-958.383
173.85	-958.383
174	-958.383
174.15	-958.383
174.3	-1030.26
174.45	-1094.85
174.6	-1110.36
174.75	-1110.36
174.9	-1110.36
175.05	-1110.36
175.2	-1110.36
175.35	-1110.36
175.5	-1110.36
175.65	-1110.36
175.8	-1110.36
175.95	-1110.36
176.1	-1110.36
176.25	-1110.36
176.4	-1110.36
176.55	-1110.36
176.7	-1110.36
176.85	-1110.36
177	-1110.36
177.15	-1110.36
177.3	-1110.36
177.45	-1110.36
177.6	-1110.36
177.75	-1110.36
177.9	-1110.36
178.05	-1110.36
178.2	-1086.93
178.35	-958.662
178.5	-772.089
178.65	-772.089
178.8	-772.089
178.95	-772.089
179.1	-772.089
179.25	-772.089
179.4	-772.089
179.55	-772.089
179.7	-772.089
179.85	-772.089
180	-772.089
180.15	-772.089
180.3	-772.089
180.45	-772.089
180.6	-772.089
180.75	-772.089
180.9	-772.089
181.05	-772.089
181.2	-772.089
181.35	-772.089
181.5	-772.089
181.65	-772.089
181.8	-772.089
181.95	-772.089
182.1	-772.089
182.25	-772.089
182.4	-613.698
182.55	-546.428
182.7	-538.84
182.85	-538.84
183	-538.84
183.15	-538.84
183.3	-538.84
183.45	-538.84
183.6	-538.84
183.75	-538.84
183.9	-538.84
184.05	-538.84
184.2	-538.84
184.35	-538.84
184.5	-538.84
184.65	-538.84
184.8	-538.84
184.95	-538.84
185.1	-538.84
185.25	-538.84
185.4	-538.84
185.55	-538.84
185.7	-538.84
185.85	-538.84
186	-538.84
186.15	-538.84
186.3	-546.502
186.45	-571.627
186.6	-592.24
186.75	-592.24
186.9	-592.24
187.05	-592.24
187.2	-592.24
187.35	-592.24
187.5	-592.24
187.65	-592.24
187.8	-592.24
187.95	-592.24
188.1	-592.24
188.25	-592.24
188.4	-592.24
188.55	-592.24
188.7	-592.24
188.85	-592.24
189	-592.24
189.15	-592.24
189.3	-592.24
189.45	-592.24
189.6	-592.24
189.75	-592.24
189.9	-592.24
190.05	-592.24
190.2	-592.24
190.35	-589.358
190.5	-412.911
190.65	-377.985
190.8	-377.985
190.95	-377.985
191.1	-377.985
191.25	-377.985
191.4	-377.985
191.55	-377.985
191.7	-377.985
191.85	-377.985
192	-377.985
192.15	-377.985
192.3	-377.985
192.45	-377.985
192.6	-377.985
192.75	-377.985
192.9	-377.985
193.05	-377.985
193.2	-377.985
193.35	-377.985
193.5	-377.985
193.65	-377.985
193.8	-377.985
193.95	-377.985
194.1	-377.985
194.25	-377.985
194.4	-281.509
194.55	-31.574
194.7	100.638
194.85	100.638
195	100.638
195.15	100.638
195.3	100.638
195.45	100.638
195.6	100.638
195.75	100.638
195.9	100.638
196.05	100.638
196.2	100.638
196.35	100.638
196.5	100.638
196.65	100.638
196.8	100.638
196.95	100.638
197.1	100.638
197.25	100.638
197.4	100.638
197.55	100.638
197.7	100.638
197.85	100.638
198	100.638
198.15	100.638
198.3	100.638
198.45	122.799
198.6	237.003
198.75	262.029
198.9	262.029
199.05	262.029
199.2	262.029
199.35	262.029
199.5	262.029
199.65	262.029
199.8	262.029
199.95	262.029
200.1	262.029
200.25	262.029
200.4	262.029
200.55	262.029
200.7	262.029
200.85	262.029
201	262.029
201.15	262.029
201.3	262.029
201.45	262.029
201.6	262.029
201.75	262.029
201.9	262.029
202.05	262.029
202.2	262.029
202.35	262.029
202.5	238.792
202.65	172.788
202.8	151.867
202.95	151.867
203.1	151.867
203.25	151.867
203.4	151.867
203.55	151.867
203.7	151.867
203.85	151.867
204	151.867
204.15	151.867
204.3	151.867
204.45	151.867
204.6	151.867
204.75	151.867
204.9	151.867
205.05	151.867
205.2	151.867
205.35	151.867
205.5	151.867
205.65	151.867
205.8	151.867
205.95	151.867
206.1	151.867
206.25	151.867
206.4	151.867
206.55	162.758
206.7	189.802
206.85	198.74
207	198.74
207.15	198.74
207.3	198.74
207.45	198.74
207.6	198.74
207.75	198.74
207.9	198.74
208.05	198.74
208.2	198.74
208.35	198.74
208.5	198.74
208.65	198.74
208.8	198.74
208.95	198.74
209.1	198.74
209.25	198.74
209.4	198.74
209.55	198.74
209.7	198.74
209.85	198.74
210	198.74
210.15	198.74
210.3	198.74
210.45	198.74
210.6	207.282
210.75	254.38
210.9	260.206
211.05	260.206
211.2	260.206
211.35	260.206
211.5	260.206
211.65	260.206
211.8	260.206
211.95	260.206
212.1	260.206
212.25	260.206
212.4	260.206
212.55	260.206
212.7	260.206
212.85	260.206
213	260.206
213.15	260.206
213.3	260.206
213.45	260.206
213.6	260.206
213.75	260.206
213.9	260.206
214.05	260.206
214.2	260.206
214.35	260.206
214.5	260.206
214.65	210.996
214.8	119.127
214.95	75.1886
215.1	75.1886
215.25	75.1886
215.4	75.1886
215.55	75.1886
215.7	75.1886
215.85	75.1886
216	75.1886
216.15	75.1886
216.3	75.1886
216.45	75.1886
216.6	75.1886
216.75	75.1886
216.9	75.1886
217.05	75.1886
217.2	75.1886
217.35	75.1886
217.5	75.1886
217.65	75.1886
217.8	75.1886
217.95	75.1886
218.1	75.1886
218.25	75.1886
218.4	75.1886
218.55	75.1886
218.7	66.3858
218.85	-144.703
219	-154.752
219.15	-154.752
219.3	-154.752
219.45	-154.752
219.6	-154.752
219.75	-154.752
219.9	-154.752
220.05	-154.752
220.2	-154.752
220.35	-154.752
220.5	-154.752
220.65	-154.752
220.8	-154.752
220.95	-154.752
221.1	-154.752
221.25	-154.752
221.4	-154.752
221.55	-154.752
221.7	-154.752
221.85	-154.752
222	-154.752
222.15	-154.752
222.3	-154.752
222.45	-154.752
222.6	-154.752
222.75	-186.692
222.9	-269.349
223.05	-310.228
223.2	-310.228
223.35	-310.228
223.5	-310.228
223.65	-310.228
223.8	-310.228
223.95	-310.228
224.1	-310.228
224.25	-310.228
224.4	-310.228
224.55	-310.228
224.7	-310.228
224.85	-310.228
225	-310.228
225.15	-310.228
225.3	-310.228
225.45	-310.228
225.6	-310.228
225.75	-310.228
225.9	-310.228
226.05	-310.228
226.2	-310.228
226.35	-310.228
226.5	-310.228
226.65	-310.228
226.8	-332.781
226.95	-437.146
227.1	-481.586
227.25	-481.586
227.4	-481.586
227.55	-481.586
227.7	-481.586
227.85	-481.586
228	-481.586
228.15	-481.586
228.3	-481.586
228.45	-481.586
228.6	-481.586
228.75	-481.586
228.9	-481.586
229.05	-481.586
229.2	-481.586
229.35	-481.586
229.5	-481.586
229.65	-481.586
229.8	-481.586
229.95	-481.586
230.1	-481.586
230.25	-481.586
230.4	-481.586
230.55	-481.586
230.7	-481.586
230.85	-481.851
231	-492.678
231.15	-496.072
231.3	-496.072
231.45	-496.072
231.6	-496.072
231.75	-496.072
231.9	-496.072
232.05	-496.072
232.2	-496.072
232.35	-496.072
232.5	-496.072
232.65	-496.072
232.8	-496.072
232.95	-496.072
233.1	-496.072
233.25	-496.072
233.4	-496.072
233.55	-496.072
233.7	-496.072
233.85	-496.072
234	-496.072
234.15	-496.072
234.3	-496.072
234.45	-496.072
234.6	-496.072
234.75	-496.072
234.9	-473.325
235.05	-388.578
235.2	-303.832
235.35	-303.832
235.5	-303.832
235.65	-303.832
235.8	-303.832
235.95	-303.832
236.1	-303.832
236.25	-303.832
236.4	-303.832
236.55	-303.832
236.7	-303.832
236.85	-303.832
237	-303.832
237.15	-303.832
237.3	-303.832
237.45	-303.832
237.6	-303.832
237.75	-303.832
237.9	-303.832
238.05	-303.832
238.2	-303.832
238.35	-303.832
238.5	-303.832
238.65	-303.832
238.8	-303.832
238.95	-303.832
239.1	-267.633
239.25	-244.665
239.4	-242.405
239.55	-242.405
239.7	-242.405
239.85	-242.405
240	-242.405
240.15	-242.405
240.3	-242.405
240.45	-242.405
240.6	-242.405
240.75	-242.405
240.9	-242.405
241.05	-242.405
241.2	-242.405
241.35	-242.405
241.5	-242.405
241.65	-242.405
241.8	-242.405
241.95	-242.405
242.1	-242.405
242.25	-242.405
242.4	-242.405
242.55	-242.405
242.7	-242.405
242.85	-242.405
243	-242.405
243.15	-215.49
243.3	-184.389
243.45	-182.137
243.6	-182.137
243.75	-182.137
243.9	-182.137
244.05	-182.137
244.2	-182.137
244.35	-182.137
244.5	-182.137
244.65	-182.137
244.8	-182.137
244.95	-182.137
245.1	-182.137
245.25	-182.137
245.4	-182.137
245.55	-182.137
245.7	-182.137
245.85	-182.137
246	-182.137
246.15	-182.137
246.3	-182.137
246.45	-182.137
246.6	-182.137
246.75	-182.137
246.9	-182.137
247.05	-175.247
247.2	-53.1993
247.35	367.457
247.5	367.457
247.65	367.457
247.8	367.457
247.95	367.457
248.1	367.457
248.25	367.457
248.4	367.457
248.55	367.457
248.7	367.457
248.85	367.457
249	367.457
249.15	367.457
249.3	367.457
249.45	367.457
249.6	367.457
249.75	367.457
249.9	367.457
250.05	367.457
250.2	367.457
250.35	367.457
250.5	367.457
250.65	367.457
250.8	367.457
250.95	367.457
251.1	367.457
251.25	548.415
251.4	875.107
251.55	1013.06
251.7	1013.06
251.85	1013.06
252	1013.06
252.15	1013.06
252.3	1013.06
252.45	1013.06
252.6	1013.06
252.75	1013.06
252.9	1013.06
253.05	1013.06
253.2	1013.06
253.35	1013.06
253.5	1013.06
253.65	1013.06
253.8	1013.06
253.95	1013.06
254.1	1013.06
254.25	1013.06
254.4	1013.06
254.55	1013.06
254.7	1013.06
254.85	1013.06
255	1013.06
255.15	1013.06
255.3	1020.63
255.45	1054.32
255.6	1069.35
255.75	1069.35
255.9	1069.35
256.05	1069.35
256.2	1069.35
256.35	1069.35
256.5	1069.35
256.65	1069.35
256.8	1069.35
256.95	1069.35
257.1	1069.35
257.25	1069.35
257.4	1069.35
257.55	1069.35
257.7	1069.35
257.85	1069.35
258	1069.35
258.15	1069.35
258.3	1069.35
258.45	1069.35
258.6	1069.35
258.75	1069.35
258.9	1069.35
259.05	1069.35
259.2	1069.35
259.35	1069.35
259.5	1063.69
259.65	1061.26
259.8	1061.02
259.95	1061.02
260.1	1061.02
260.25	1061.02
260.4	1061.02
260.55	1061.02
260.7	1061.02
260.85	1061.02
261	1061.02
261.15	1061.02
261.3	1061.02
261.45	1061.02
261.6	1061.02
261.75	1061.02
261.9	1061.02
262.05	1061.02
262.2	1061.02
262.35	1061.02
262.5	1061.02
262.65	1061.02
262.8	1061.02
262.95	1061.02
263.1	1061.02
263.25	1061.02
263.4	1075.69
263.55	1271.71
263.7	1605.57
263.85	1605.57
264	1605.57
264.15	1605.57
264.3	1605.57
264.45	1605.57
264.6	1605.57
264.75	1605.57
264.9	1605.57
265.05	1605.57
265.2	1605.57
265.35	1605.57
265.5	1605.57
265.65	1605.57
265.8	1605.57
265.95	1605.57
266.1	1605.57
266.25	1605.57
266.4	1605.57
266.55	1605.57
266.7	1605.57
266.85	1605.57
267	1605.57
267.15	1605.57
267.3	1605.57
267.45	1605.57
267.6	1663.26
267.75	1837.62
267.9	1855.61
268.05	1855.61
268.2	1855.61
268.35	1855.61
268.5	1855.61
268.65	1855.61
268.8	1855.61
268.95	1855.61
269.1	1855.61
269.25	1855.61
269.4	1855.61
269.55	1855.61
269.7	1855.61
269.85	1855.61
270	1855.61
270.15	1855.61
270.3	1855.61
270.45	1855.61
270.6	1855.61
270.75	1855.61
270.9	1855.61
271.05	1855.61
271.2	1855.61
271.35	1855.61
271.5	1855.61
271.65	1716.55
271.8	1374.23
271.95	1154.7
272.1	1154.7
272.25	1154.7
272.4	1154.7
272.55	1154.7
272.7	1154.7
272.85	1154.7
273	1154.7
273.15	1154.7
273.3	1154.7
273.45	1154.7
273.6	1154.7
273.75	1154.7
273.9	1154.7
274.05	1154.7
274.2	1154.7
274.35	1154.7
274.5	1154.7
274.65	1154.7
274.8	1154.7
274.95	1154.7
275.1	1154.7
275.25	1154.7
275.4	1154.7
275.55	1154.7
275.7	1134.46
275.85	782.22
276	492.105
276.15	492.105
276.3	492.105
276.45	492.105
276.6	492.105
276.75	492.105
276.9	492.105
277.05	492.105
277.2	492.105
277.35	492.105
277.5	492.105
277.65	492.105
277.8	492.105
277.95	492.105
278.1	492.105
278.25	492.105
278.4	492.105
278.55	492.105
278.7	492.105
278.85	492.105
279	492.105
279.15	492.105
279.3	492.105
279.45	492.105
279.6	492.105
279.75	492.105
279.9	466.782
280.05	438.969
280.2	430.876
280.35	430.876
280.5	430.876
280.65	430.876
280.8	430.876
280.95	430.876
281.1	430.876
281.25	430.876
281.4	430.876
281.55	430.876
281.7	430.876
281.85	430.876
282	430.876
282.15	430.876
282.3	430.876
282.45	430.876
282.6	430.876
282.75	430.876
282.9	430.876
283.05	430.876
283.2	430.876
283.35	430.876
283.5	430.876
283.65	430.876
283.8	430.876
283.95	359.103
284.1	36.7686
284.25	-58.8308
284.4	-58.8308
284.55	-58.8308
284.7	-58.8308
284.85	-58.8308
285	-58.8308
285.15	-58.8308
285.3	-58.8308
285.45	-58.8308
285.6	-58.8308
285.75	-58.8308
285.9	-58.8308
286.05	-58.8308
286.2	-58.8308
286.35	-58.8308
286.5	-58.8308
286.65	-58.8308
286.8	-58.8308
286.95	-58.8308
287.1	-58.8308
287.25	-58.8308
287.4	-58.8308
287.55	-58.8308
287.7	-58.8308
287.85	-58.8308
288	-58.8308
288.15	-845.344
288.3	-1235.41
288.45	-1284.08
288.6	-1284.08
288.75	-1284.08
288.9	-1284.08
289.05	-1284.08
289.2	-1284.08
289.35	-1284.08
289.5	-1284.08
289.65	-1284.08
289.8	-1284.08
289.95	-1284.08
290.1	-1284.08
290.25	-1284.08
290.4	-1284.08
290.55	-1284.08
290.7	-1284.08
290.85	-1284.08
291	-1284.08
291.15	-1284.08
291.3	-1284.08
291.45	-1284.08
291.6	-1284.08
291.75	-1284.08
291.9	-1284.08
292.05	-1284.08
292.2	-1520.81
292.35	-2028.31
292.5	-2078.77
292.65	-2078.77
292.8	-2078.77
292.95	-2078.77
293.1	-2078.77
293.25	-2078.77
293.4	-2078.77
293.55	-2078.77
293.7	-2078.77
293.85	-2078.77
294	-2078.77
294.15	-2078.77
294.3	-2078.77
294.45	-2078.77
294.6	-2078.77
294.75	-2078.77
294.9	-2078.77
295.05	-2078.77
295.2	-2078.77
295.35	-2078.77
295.5	-2078.77
295.65	-2078.77
295.8	-2078.77
295.95	-2078.77
296.1	-2078.77
296.25	-2078.77
296.4	-2129.32
296.55	-2137.68
296.7	-2138.02
296.85	-2138.02
297	-2138.02
297.15	-2138.02
297.3	-2138.02
297.45	-2138.02
297.6	-2138.02
297.75	-2138.02
297.9	-2138.02
298.05	-2138.02
298.2	-2138.02
298.35	-2138.02
298.5	-2138.02
298.65	-2138.02
298.8	-2138.02
298.95	-2138.02
299.1	-2138.02
299.25	-2138.02
299.4	-2138.02
299.55	-2138.02
299.7	-2138.02
299.85	-2138.02
300	-2138.02
300.15	-2138.02
300.3	-2138.02
300.45	-2228.84
300.6	-2335.69
300.75	-2338.12
300.9	-2338.12
301.05	-2338.12
301.2	-2338.12
301.35	-2338.12
301.5	-2338.12
301.65	-2338.12
301.8	-2338.12
301.95	-2338.12
302.1	-2338.12
302.25	-2338.12
302.4	-2338.12
302.55	-2338.12
302.7	-2338.12
302.85	-2338.12
303	-2338.12
303.15	-2338.12
303.3	-2338.12
303.45	-2338.12
303.6	-2338.12
303.75	-2338.12
303.9	-2338.12
304.05	-2338.12
304.2	-2338.12
304.35	-2338.12
304.5	-2349.68
304.65	-2699.93
304.8	-2705.36
304.95	-2705.36
305.1	-2705.36
305.25	-2705.36
305.4	-2705.36
305.55	-2705.36
305.7	-2705.36
305.85	-2705.36
306	-2705.36
306.15	-2705.36
306.3	-2705.36
306.45	-2705.36
306.6	-2705.36
306.75	-2705.36
306.9	-2705.36
307.05	-2705.36
307.2	-2705.36
307.35	-2705.36
307.5	-2705.36
307.65	-2705.36
307.8	-2705.36
307.95	-2705.36
308.1	-2705.36
308.25	-2705.36
308.4	-2705.36
308.55	-2705.36
308.7	-2594.8
308.85	-2518.16
309	-2516.03
309.15	-2516.03
309.3	-2516.03
309.45	-2516.03
309.6	-2516.03
309.75	-2516.03
309.9	-2516.03
310.05	-2516.03
310.2	-2516.03
310.35	-2516.03
310.5	-2516.03
310.65	-2516.03
310.8	-2516.03
310.95	-2516.03
311.1	-2516.03
311.25	-2516.03
311.4	-2516.03
311.55	-2516.03
311.7	-2516.03
311.85	-2516.03
312	-2516.03
312.15	-2516.03
312.3	-2516.03
312.45	-2516.03
312.6	-2516.03
312.75	-2397.49
312.9	-1804.13
313.05	-1767.74
313.2	-1767.74
313.35	-1767.74
313.5	-1767.74
313.65	-1767.74
313.8	-1767.74
313.95	-1767.74
314.1	-1767.74
314.25	-1767.74
314.4	-1767.74
314.55	-1767.74
314.7	-1767.74
314.85	-1767.74
315	-1767.74
315.15	-1767.74
315.3	-1767.74
315.45	-1767.74
315.6	-1767.74
315.75	-1767.74
315.9	-1767.74
316.05	-1767.74
316.2	-1767.74
316.35	-1767.74
316.5	-1767.74
316.65	-1767.74
316.8	-1767.74
316.95	-1159.09
317.1	-869.61
317.25	-841.892
317.4	-841.892
317.55	-841.892
317.7	-841.892
317.85	-841.892
318	-841.892
318.15	-841.892
318.3	-841.892
318.45	-841.892
318.6	-841.892
318.75	-841.892
318.9	-841.892
319.05	-841.892
319.2	-841.892
319.35	-841.892
319.5	-841.892
319.65	-841.892
319.8	-841.892
319.95	-841.892
320.1	-841.892
320.25	-841.892
320.4	-841.892
320.55	-841.892
320.7	-841.892
320.85	-841.892
321	-598.457
321.15	7.9572
321.3	129.047
321.45	129.047
321.6	129.047
321.75	129.047
321.9	129.047
322.05	129.047
322.2	129.047
322.35	129.047
322.5	129.047
322.65	129.047
322.8	129.047
322.95	129.047
323.1	129.047
323.25	129.047
323.4	129.047
323.55	129.047
323.7	129.047
323.85	129.047
324	129.047
324.15	129.047
324.3	129.047
324.45	129.047
324.6	129.047
324.75	129.047
324.9	129.047
325.05	129.047
325.2	643.949
325.35	899.363
325.5	929.58
325.65	929.58
325.8	929.58
325.95	929.58
326.1	929.58
326.25	929.58
326.4	929.58
326.55	929.58
326.7	929.58
326.85	929.58
327	929.58
327.15	929.58
327.3	929.58
327.45	929.58
327.6	929.58
327.75	929.58
327.9	929.58
328.05	929.58
328.2	929.58
328.35	929.58
328.5	929.58
328.65	929.58
328.8	929.58
328.95	929.58
329.1	929.58
329.25	1134.15
329.4	1509.63
329.55	1666.07
329.7	1666.07
329.85	1666.07
330	1666.07
330.15	1666.07
330.3	1666.07
330.45	1666.07
330.6	1666.07
330.75	1666.07
330.9	1666.07
331.05	1666.07
331.2	1666.07
331.35	1666.07
331.5	1666.07
331.65	1666.07
331.8	1666.07
331.95	1666.07
332.1	1666.07
332.25	1666.07
332.4	1666.07
332.55	1666.07
332.7	1666.07
332.85	1666.07
333	1666.07
333.15	1666.07
333.3	1670.75
333.45	2241.64
333.6	2798.86
333.75	2803.31
333.9	2803.31
334.05	2803.31
334.2	2803.31
334.35	2803.31
334.5	2803.31
334.65	2803.31
334.8	2803.31
334.95	2803.31
335.1	2803.31
335.25	2803.31
335.4	2803.31
335.55	2803.31
335.7	2803.31
335.85	2803.31
336	2803.31
336.15	2803.31
336.3	2803.31
336.45	2803.31
336.6	2803.31
336.75	2803.31
336.9	2803.31
337.05	2803.31
337.2	2803.31
337.35	2803.31
337.5	2988.2
337.65	3441.5
337.8	3690.72
337.95	3690.72
338.1	3690.72
338.25	3690.72
338.4	3690.72
338.55	3690.72
338.7	3690.72
338.85	3690.72
339	3690.72
339.15	3690.72
339.3	3690.72
339.45	3690.72
339.6	3690.72
339.75	3690.72
339.9	3690.72
340.05	3690.72
340.2	3690.72
340.35	3690.72
340.5	3690.72
340.65	3690.72
340.8	3690.72
340.95	3690.72
341.1	3690.72
341.25	3690.72
341.4	3690.72
341.55	3677.43
341.7	3550.72
341.85	3225.85
342	3225.85
342.15	3225.85
342.3	3225.85
342.45	3225.85
342.6	3225.85
342.75	3225.85
342.9	3225.85
343.05	3225.85
343.2	3225.85
343.35	3225.85
343.5	3225.85
343.65	3225.85
343.8	3225.85
343.95	3225.85
344.1	3225.85
344.25	3225.85
344.4	3225.85
344.55	3225.85
344.7	3225.85
344.85	3225.85
345	3225.85
345.15	3225.85
345.3	3225.85
345.45	3225.85
345.6	3225.85
345.75	3216.2
345.9	2638.69
346.05	2388.26
346.2	2388.26
346.35	2388.26
346.5	2388.26
346.65	2388.26
346.8	2388.26
346.95	2388.26
347.1	2388.26
347.25	2388.26
347.4	2388.26
347.55	2388.26
347.7	2388.26
347.85	2388.26
348	2388.26
348.15	2388.26
348.3	2388.26
348.45	2388.26
348.6	2388.26
348.75	2388.26
348.9	2388.26
349.05	2388.26
349.2	2388.26
349.35	2388.26
349.5	2388.26
349.65	2388.26
349.8	2388.26
349.95	2431.02
350.1	2559.33
350.25	2587.04
350.4	2587.04
350.55	2587.04
350.7	2587.04
350.85	2587.04
351	2587.04
351.15	2587.04
351.3	2587.04
351.45	2587.04
351.6	2587.04
351.75	2587.04
351.9	2587.04
352.05	2587.04
352.2	2587.04
352.35	2587.04
352.5	2587.04
352.65	2587.04
352.8	2587.04
352.95	2587.04
353.1	2587.04
353.25	2587.04
353.4	2587.04
353.55	2587.04
353.7	2587.04
353.85	2587.04
354	2587.04
354.15	2449.91
354.3	2330.23
354.45	2309.5
354.6	2309.5
354.75	2309.5
354.9	2309.5
355.05	2309.5
355.2	2309.5
355.35	2309.5
355.5	2309.5
355.65	2309.5
355.8	2309.5
355.95	2309.5
356.1	2309.5
356.25	2309.5
356.4	2309.5
356.55	2309.5
356.7	2309.5
356.85	2309.5
357	2309.5
357.15	2309.5
357.3	2309.5
357.45	2309.5
357.6	2309.5
357.75	2309.5
357.9	2309.5
358.05	2309.5
358.2	1988.12
358.35	943.669
358.5	42.0118
358.65	42.0118
358.8	42.0118
358.95	42.0118
359.1	42.0118
359.25	42.0118
359.4	42.0118
359.55	42.0118
359.7	42.0118
359.85	42.0118
360	42.0118
360.15	42.0118
360.3	42.0118
360.45	42.0118
360.6	42.0118
360.75	42.0118
360.9	42.0118
361.05	42.0118
361.2	42.0118
361.35	42.0118
361.5	42.0118
361.65	42.0118
361.8	42.0118
361.95	42.0118
362.1	42.0118
362.25	42.0118
362.4	-137.239
362.55	-1813.31
362.7	-1897.17
362.85	-1897.17
363	-1897.17
363.15	-1897.17
363.3	-1897.17
363.45	-1897.17
363.6	-1897.17
363.75	-1897.17
363.9	-1897.17
364.05	-1897.17
364.2	-1897.17
364.35	-1897.17
364.5	-1897.17
364.65	-1897.17
364.8	-1897.17
364.95	-1897.17
365.1	-1897.17
365.25	-1897.17
365.4	-1897.17
365.55	-1897.17
365.7	-1897.17
365.85	-1897.17
366	-1897.17
366.15	-1897.17
366.3	-1897.17
366.45	-1897.17
366.6	-1805.32
366.75	-1700.68
366.9	-1681.14
367.05	-1681.14
367.2	-1681.14
367.35	-1681.14
367.5	-1681.14
367.65	-1681.14
367.8	-1681.14
367.95	-1681.14
368.1	-1681.14
368.25	-1681.14
368.4	-1681.14
368.55	-1681.14
368.7	-1681.14
368.85	-1681.14
369	-1681.14
369.15	-1681.14
369.3	-1681.14
369.45	-1681.14
369.6	-1681.14
369.75	-1681.14
369.9	-1681.14
370.05	-1681.14
370.2	-1681.14
370.35	-1681.14
370.5	-1681.14
370.65	-1690.96
370.8	-1800.01
370.95	-1895.48
371.1	-1895.48
371.25	-1895.48
371.4	-1895.48
371.55	-1895.48
371.7	-1895.48
371.85	-1895.48
372	-1895.48
372.15	-1895.48
372.3	-1895.48
372.45	-1895.48
372.6	-1895.48
372.75	-1895.48
372.9	-1895.48
373.05	-1895.48
373.2	-1895.48
373.35	-1895.48
373.5	-1895.48
373.65	-1895.48
373.8	-1895.48
373.95	-1895.48
374.1	-1895.48
374.25	-1895.48
374.4	-1895.48
374.55	-1895.48
374.7	-1895.48
374.85	-2170.32
375	-3366.65
375.15	-3958.37
375.3	-3958.37
375.45	-3958.37
375.6	-3958.37
375.75	-3958.37
375.9	-3958.37
376.05	-3958.37
376.2	-3958.37
376.35	-3958.37
376.5	-3958.37
376.65	-3958.37
376.8	-3958.37
376.95	-3958.37
377.1	-3958.37
377.25	-3958.37
377.4	-3958.37
377.55	-3958.37
377.7	-3958.37
377.85	-3958.37
378	-3958.37
378.15	-3958.37
378.3	-3958.37
378.45	-3958.37
378.6	-3958.37
378.75	-3958.37
378.9	-3958.37
379.05	-4082.62
379.2	-4572.98
379.35	-4647.17
379.5	-4647.17
379.65	-4647.17
379.8	-4647.17
379.95	-4647.17
380.1	-4647.17
380.25	-4647.17
380.4	-4647.17
380.55	-4647.17
380.7	-4647.17
380.85	-4647.17
381	-4647.17
381.15	-4647.17
381.3	-4647.17
381.45	-4647.17
381.6	-4647.17
381.75	-4647.17
381.9	-4647.17
382.05	-4647.17
382.2	-4647.17
382.35	-4647.17
382.5	-4647.17
382.65	-4647.17
382.8	-4647.17
382.95	-4647.17
383.1	-4647.17
383.25	-3861.14
383.4	-2897.16
383.55	-2664.35
383.7	-2664.35
383.85	-2664.35
384	-2664.35
384.15	-2664.35
384.3	-2664.35
384.45	-2664.35
384.6	-2664.35
384.75	-2664.35
384.9	-2664.35
385.05	-2664.35
385.2	-2664.35
385.35	-2664.35
385.5	-2664.35
385.65	-2664.35
385.8	-2664.35
385.95	-2664.35
386.1	-2664.35
386.25	-2664.35
386.4	-2664.35
386.55	-2664.35
386.7	-2664.35
386.85	-2664.35
387	-2664.35
387.15	-2664.35
387.3	-2600.86
387.45	-2093.17
387.6	-1301.65
387.75	-1301.65
387.9	-1301.65
388.05	-1301.65
388.2	-1301.65
388.35	-1301.65
388.5	-1301.65
388.65	-1301.65
388.8	-1301.65
388.95	-1301.65
389.1	-1301.65
389.25	-1301.65
389.4	-1301.65
389.55	-1301.65
389.7	-1301.65
389.85	-1301.65
390	-1301.65
390.15	-1301.65
390.3	-1301.65
390.45	-1301.65
390.6	-1301.65
390.75	-1301.65
390.9	-1301.65
391.05	-1301.65
391.2	-1301.65
391.35	-1301.65
391.5	-1301.65
391.65	-1468.52
391.8	-1545.37
391.95	-1553.2
392.1	-1553.2
392.25	-1553.2
392.4	-1553.2
392.55	-1553.2
392.7	-1553.2
392.85	-1553.2
393	-1553.2
393.15	-1553.2
393.3	-1553.2
393.45	-1553.2
393.6	-1553.2
393.75	-1553.2
393.9	-1553.2
394.05	-1553.2
394.2	-1553.2
394.35	-1553.2
394.5	-1553.2
394.65	-1553.2
394.8	-1553.2
394.95	-1553.2
395.1	-1553.2
395.25	-1553.2
395.4	-1553.2
395.55	-1553.2
395.7	-1403.04
395.85	-929.847
396	-560.49
396.15	-560.49
396.3	-560.49
396.45	-560.49
396.6	-560.49
396.75	-560.49
396.9	-560.49
397.05	-560.49
397.2	-560.49
397.35	-560.49
397.5	-560.49
397.65	-560.49
397.8	-560.49
397.95	-560.49
398.1	-560.49
398.25	-560.49
398.4	-560.49
398.55	-560.49
398.7	-560.49
398.85	-560.49
399	-560.49
399.15	-560.49
399.3	-560.49
399.45	-560.49
399.6	-560.49
399.75	-560.49
399.9	-522.734
400.05	1789.05
400.2	2074.88
400.35	2074.88
400.5	2074.88
400.65	2074.88
400.8	2074.88
400.95	2074.88
401.1	2074.88
401.25	2074.88
401.4	2074.88
401.55	2074.88
401.7	2074.88
401.85	2074.88
402	2074.88
402.15	2074.88
402.3	2074.88
402.45	2074.88
402.6	2074.88
402.75	2074.88
402.9	2074.88
403.05	2074.88
403.2	2074.88
403.35	2074.88
403.5	2074.88
403.65	2074.88
403.8	2074.88
403.95	2074.88
404.1	2537.52
404.25	3445.44
404.4	3885.36
404.55	3885.36
404.7	3885.36
404.85	3885.36
405	3885.36
405.15	3885.36
405.3	3885.36
405.45	3885.36
405.6	3885.36
405.75	3885.36
405.9	3885.36
406.05	3885.36
406.2	3885.36
406.35	3885.36
406.5	3885.36
406.65	3885.36
406.8	3885.36
406.95	3885.36
407.1	3885.36
407.25	3885.36
407.4	3885.36
407.55	3885.36
407.7	3885.36
407.85	3885.36
408	3885.36
408.15	3885.36
408.3	3925.43
408.45	4181.05
408.6	4190.8
408.75	4190.8
408.9	4190.8
409.05	4190.8
409.2	4190.8
409.35	4190.8
409.5	4190.8
409.65	4190.8
409.8	4190.8
409.95	4190.8
410.1	4190.8
410.25	4190.8
410.4	4190.8
410.55	4190.8
410.7	4190.8
410.85	4190.8
411	4190.8
411.15	4190.8
411.3	4190.8
411.45	4190.8
411.6	4190.8
411.75	4190.8
411.9	4190.8
412.05	4190.8
412.2	4190.8
412.35	4190.8
412.5	4062.39
412.65	3866.98
412.8	3802.85
412.95	3802.85
413.1	3802.85
413.25	3802.85
413.4	3802.85
413.55	3802.85
413.7	3802.85
413.85	3802.85
414	3802.85
414.15	3802.85
414.3	3802.85
414.45	3802.85
414.6	3802.85
414.75	3802.85
414.9	3802.85
415.05	3802.85
415.2	3802.85
415.35	3802.85
415.5	3802.85
415.65	3802.85
415.8	3802.85
415.95	3802.85
416.1	3802.85
416.25	3802.85
416.4	3802.85
416.55	3802.85
416.7	3713.14
416.85	3448.82
417	3436.79
417.15	3436.79
417.3	3436.79
417.45	3436.79
417.6	3436.79
417.75	3436.79
417.9	3436.79
418.05	3436.79
418.2	3436.79
418.35	3436.79
418.5	3436.79
418.65	3436.79
418.8	3436.79
418.95	3436.79
419.1	3436.79
419.25	3436.79
419.4	3436.79
419.55	3436.79
419.7	3436.79
419.85	3436.79
420	3436.79
420.15	3436.79
420.3	3436.79
420.45	3436.79
420.6	3436.79
420.75	3436.79
420.9	3606.56
421.05	3869.46
421.2	3923.28
421.35	3923.28
421.5	3923.28
421.65	3923.28
421.8	3923.28
421.95	3923.28
422.1	3923.28
422.25	3923.28
422.4	3923.28
422.55	3923.28
422.7	3923.28
422.85	3923.28
423	3923.28
423.15	3923.28
423.3	3923.28
423.45	3923.28
423.6	3923.28
423.75	3923.28
423.9	3923.28
424.05	3923.28
424.2	3923.28
424.35	3923.28
424.5	3923.28
424.65	3923.28
424.8	3923.28
424.95	3923.28
425.1	3756.9
425.25	3457.07
425.4	3414.92
425.55	3414.92
425.7	3414.92
425.85	3414.92
426	3414.92
426.15	3414.92
426.3	3414.92
426.45	3414.92
426.6	3414.92
426.75	3414.92
426.9	3414.92
427.05	3414.92
427.2	3414.92
427.35	3414.92
427.5	3414.92
427.65	3414.92
427.8	3414.92
427.95	3414.92
428.1	3414.92
428.25	3414.92
428.4	3414.92
428.55	3414.92
428.7	3414.92
428.85	3414.92
429	3414.92
429.15	3414.92
429.3	2126.01
429.45	-950.065
429.6	-1182.2
429.75	-1182.2
429.9	-1182.2
430.05	-1182.2
430.2	-1182.2
430.35	-1182.2
430.5	-1182.2
430.65	-1182.2
430.8	-1182.2
430.95	-1182.2
431.1	-1182.2
431.25	-1182.2
431.4	-1182.2
431.55	-1182.2
431.7	-1182.2
431.85	-1182.2
432	-1182.2
432.15	-1182.2
432.3	-1182.2
432.45	-1182.2
432.6	-1182.2
432.75	-1182.2
432.9	-1182.2
433.05	-1182.2
433.2	-1182.2
433.35	-1182.2
433.5	-2739.42
433.65	-4954.77
433.8	-5640.99
433.95	-5640.99
434.1	-5640.99
434.25	-5640.99
434.4	-5640.99
434.55	-5640.99
434.7	-5640.99
434.85	-5640.99
435	-5640.99
435.15	-5640.99
435.3	-5640.99
435.45	-5640.99
435.6	-5640.99
435.75	-5640.99
435.9	-5640.99
436.05	-5640.99
436.2	-5640.99
436.35	-5640.99
436.5	-5640.99
436.65	-5640.99
436.8	-5640.99
436.95	-5640.99
437.1	-5640.99
437.25	-5640.99
437.4	-5640.99
437.55	-5629.71
437.7	-5380.34
437.85	-3702.9
438	-3702.9
438.15	-3702.9
438.3	-3702.9
438.45	-3702.9
438.6	-3702.9
438.75	-3702.9
438.9	-3702.9
439.05	-3702.9
439.2	-3702.9
439.35	-3702.9
439.5	-3702.9
439.65	-3702.9
439.8	-3702.9
439.95	-3702.9
440.1	-3702.9
440.25	-3702.9
440.4	-3702.9
440.55	-3702.9
440.7	-3702.9
440.85	-3702.9
441	-3702.9
441.15	-3702.9
441.3	-3702.9
441.45	-3702.9
441.6	-3702.9
441.75	-3702.9
441.9	-3396.02
442.05	-2850.7
442.2	-2614.74
442.35	-2614.74
442.5	-2614.74
442.65	-2614.74
442.8	-2614.74
442.95	-2614.74
443.1	-2614.74
443.25	-2614.74
443.4	-2614.74
443.55	-2614.74
443.7	-2614.74
443.85	-2614.74
444	-2614.74
444.15	-2614.74
444.3	-2614.74
444.45	-2614.74
444.6	-2614.74
444.75	-2614.74
444.9	-2614.74
445.05	-2614.74
445.2	-2614.74
445.35	-2614.74
445.5	-2614.74
445.65	-2614.74
445.8	-2614.74
445.95	-2614.74
446.1	-3745.5
446.25	-9592.24
446.4	-10979.9
446.55	-10979.9
446.7	-10979.9
446.85	-10979.9
447	-10979.9
447.15	-10979.9
447.3	-10979.9
447.45	-10979.9
447.6	-10979.9
447.75	-10979.9
447.9	-10979.9
448.05	-10979.9
448.2	-10979.9
448.35	-10979.9
448.5	-10979.9
448.65	-10979.9
448.8	-10979.9
448.95	-10979.9
449.1	-10979.9
449.25	-10979.9
449.4	-10979.9
449.55	-10979.9
449.7	-10979.9
449.85	-10979.9
450	-10979.9
450.15	-10979.9
450.3	-11416.4
450.45	-14407
450.6	-15508.9
450.75	-15508.9
450.9	-15508.9
451.05	-15508.9
451.2	-15508.9
451.35	-15508.9
451.5	-15508.9
451.65	-15508.9
451.8	-15508.9
451.95	-15508.9
452.1	-15508.9
452.25	-15508.9
452.4	-15508.9
452.55	-15508.9
452.7	-15508.9
452.85	-15508.9
453	-15508.9
453.15	-15508.9
453.3	-15508.9
453.45	-15508.9
453.6	-15508.9
453.75	-15508.9
453.9	-15508.9
454.05	-15508.9
454.2	-15508.9
454.35	-15508.9
454.5	-14083
454.65	-8827.65
454.8	-4191.45
454.95	-4191.45
455.1	-4191.45
455.25	-4191.45
455.4	-4191.45
455.55	-4191.45
455.7	-4191.45
455.85	-4191.45
456	-4191.45
456.15	-4191.45
456.3	-4191.45
456.45	-4191.45
456.6	-4191.45
456.75	-4191.45
456.9	-4191.45
457.05	-4191.45
457.2	-4191.45
457.35	-4191.45
457.5	-4191.45
457.65	-4191.45
457.8	-4191.45
457.95	-4191.45
458.1	-4191.45
458.25	-4191.45
458.4	-4191.45
458.55	-4191.45
458.7	-4191.45
458.85	-268.991
459	1952.33
459.15	2267.21
459.3	2267.21
459.45	2267.21
459.6	2267.21
459.75	2267.21
459.9	2267.21
460.05	2267.21
460.2	2267.21
460.35	2267.21
460.5	2267.21
460.65	2267.21
460.8	2267.21
460.95	2267.21
461.1	2267.21
461.25	2267.21
461.4	2267.21
461.55	2267.21
461.7	2267.21
461.85	2267.21
462	2267.21
462.15	2267.21
462.3	2267.21
462.45	2267.21
462.6	2267.21
462.75	2267.21
462.9	2267.21
463.05	-2531.01
463.2	-10023.4
463.35	-10110
463.5	-10110
463.65	-10110
463.8	-10110
463.95	-10110
464.1	-10110
464.25	-10110
464.4	-10110
464.55	-10110
464.7	-10110
464.85	-10110
465	-10110
465.15	-10110
465.3	-10110
465.45	-10110
465.6	-10110
465.75	-10110
465.9	-10110
466.05	-10110
466.2	-10110
466.35	-10110
466.5	-10110
466.65	-10110
466.8	-10110
466.95	-10110
467.1	-10110
467.25	-9899.36
467.4	-9211.91
467.55	-9171.84
467.7	-9171.84
467.85	-9171.84
468	-9171.84
468.15	-9171.84
468.3	-9171.84
468.45	-9171.84
468.6	-9171.84
468.75	-9171.84
468.9	-9171.84
469.05	-9171.84
469.2	-9171.84
469.35	-9171.84
469.5	-9171.84
469.65	-9171.84
469.8	-9171.84
469.95	-9171.84
470.1	-9171.84
470.25	-9171.84
470.4	-9171.84
470.55	-9171.84
470.7	-9171.84
470.85	-9171.84
471	-9171.84
471.15	-9171.84
471.3	-9171.84
471.45	-2239.28
471.6	12280.8
471.75	20322.7
471.9	20322.7
472.05	20322.7
472.2	20322.7
472.35	20322.7
472.5	20322.7
472.65	20322.7
472.8	20322.7
472.95	20322.7
473.1	20322.7
473.25	20322.7
473.4	20322.7
473.55	20322.7
473.7	20322.7
473.85	20322.7
474	20322.7
474.15	20322.7
474.3	20322.7
474.45	20322.7
474.6	20322.7
474.75	20322.7
474.9	20322.7
475.05	20322.7
475.2	20322.7
475.35	20322.7
475.5	20322.7
475.65	20724.5
475.8	26745.3
475.95	29774.5
476.1	29774.5
476.25	29774.5
476.4	29774.5
476.55	29774.5
476.7	29774.5
476.85	29774.5
477	29774.5
477.15	29774.5
477.3	29774.5
477.45	29774.5
477.6	29774.5
477.75	29774.5
477.9	29774.5
478.05	29774.5
478.2	29774.5
478.35	29774.5
478.5	29774.5
478.65	29774.5
478.8	29774.5
478.95	29774.5
479.1	29774.5
479.25	29774.5
479.4	29774.5
479.55	29774.5
479.7	29774.5
479.85	29774.5
480	16458
480.15	5821.35
480.3	4262.16
480.45	4262.16
480.6	4262.16
480.75	4262.16
480.9	4262.16
481.05	4262.16
481.2	4262.16
481.35	4262.16
481.5	4262.16
481.65	4262.16
481.8	4262.16
481.95	4262.16
482.1	4262.16
482.25	4262.16
482.4	4262.16
482.55	4262.16
482.7	4262.16
482.85	4262.16
483	4262.16
483.15	4262.16
483.3	4262.16
483.45	4262.16
483.6	4262.16
483.75	4262.16
483.9	4262.16
484.05	4287.92
484.2	6637.91
484.35	17706
484.5	17706
484.65	17706
484.8	17706
484.95	17706
485.1	17706
485.25	17706
485.4	17706
485.55	17706
485.7	17706
485.85	17706
486	17706
486.15	17706
486.3	17706
486.45	17706
486.6	17706
486.75	17706
486.9	17706
487.05	17706
487.2	17706
487.35	17706
487.5	17706
487.65	17706
487.8	17706
487.95	17706
488.1	17706
488.25	17706
488.4	24890.8
488.55	66164.9
488.7	81196.1
488.85	81196.1
489	81196.1
489.15	81196.1
489.3	81196.1
489.45	81196.1
489.6	81196.1
489.75	81196.1
489.9	81196.1
490.05	81196.1
490.2	81196.1
490.35	81196.1
490.5	81196.1
490.65	81196.1
490.8	81196.1
490.95	81196.1
491.1	81196.1
491.25	81196.1
491.4	81196.1
491.55	81196.1
491.7	81196.1
491.85	81196.1
492	81196.1
492.15	81196.1
492.3	81196.1
492.45	81196.1
492.6	79867
492.75	73295.1
492.9	64503.8
493.05	64503.8
493.2	64503.8
493.35	64503.8
493.5	64503.8
493.65	64503.8
493.8	64503.8
493.95	64503.8
494.1	64503.8
494.25	64503.8
494.4	64503.8
494.55	64503.8
494.7	64503.8
494.85	64503.8
495	64503.8
495.15	64503.8
495.3	64503.8
495.45	64503.8
495.6	64503.8
495.75	64503.8
495.9	64503.8
496.05	64503.8
496.2	64503.8
496.35	64503.8
496.5	64503.8
496.65	64503.8
496.8	64503.8
496.95	19309.3
497.1	-62071.6
497.25	-77615.5
497.4	-77615.5
497.55	-77615.5
497.7	-77615.5
497.85	-77615.5
498	-77615.5
498.15	-77615.5
498.3	-77615.5
498.45	-77615.5
498.6	-77615.5
498.75	-77615.5
498.9	-77615.5
499.05	-77615.5
499.2	-77615.5
499.35	-77615.5
499.5	-77615.5
499.65	-77615.5
499.8	-77615.5
499.95	-77615.5
500.1	-77615.5
500.25	-77615.5
500.4	-77615.5
500.55	-77615.5
500.7	-77615.5
500.85	-77615.5
501	-77615.5
501.15	-103872
501.3	-149557
501.45	-157857
501.6	-157857
501.75	-157857
501.9	-157857
502.05	-157857
502.2	-157857
502.35	-157857
502.5	-157857
502.65	-157857
502.8	-157857
502.95	-157857
503.1	-157857
503.25	-157857
503.4	-157857
503.55	-157857
503.7	-157857
503.85	-157857
504	-157857
504.15	-157857
504.3	-157857
504.45	-157857
504.6	-157857
504.75	-157857
504.9	-157857
505.05	-157857
505.2	-157857
505.35	-44303.1
505.5	-39028.9
505.65	-38995.9
505.8	-38995.9
505.95	-38995.9
506.1	-38995.9
506.25	-38995.9
506.4	-38995.9
506.55	-38995.9
506.7	-38995.9
506.85	-38995.9
507	-38995.9
507.15	-38995.9
507.3	-38995.9
507.45	-38995.9
507.6	-38995.9
507.75	-38995.9
507.9	-38995.9
508.05	-38995.9
508.2	-38995.9
508.35	-38995.9
508.5	-38995.9
508.65	-38995.9
508.8	-38995.9
508.95	-38995.9
509.1	-38995.9
509.25	-32493.4
509.4	42449
509.55	104529
509.7	104529
509.85	104529
510	104529
510.15	104529
510.3	104529
510.45	104529
510.6	104529
510.75	104529
510.9	104529
511.05	104529
511.2	104529
511.35	104529
511.5	104529
511.65	104529
511.8	104529
511.95	104529
512.1	104529
512.25	104529
512.4	104529
512.55	104529
512.7	104529
512.85	104529
513	104529
513.15	104529
513.3	104529
513.45	104529
513.6	103060
513.75	84309.6
513.9	56481.9
514.05	56481.9
514.2	56481.9
514.35	56481.9
514.5	56481.9
514.65	56481.9
514.8	56481.9
514.95	56481.9
515.1	56481.9
515.25	56481.9
515.4	56481.9
515.55	56481.9
515.7	56481.9
515.85	56481.9
516	56481.9
516.15	56481.9
516.3	56481.9
516.45	56481.9
516.6	56481.9
516.75	56481.9
516.9	56481.9
517.05	56481.9
517.2	56481.9
517.35	56481.9
517.5	56481.9
517.65	56481.9
517.8	44058.7
517.95	-34203.5
518.1	-75833.1
518.25	-75833.1
518.4	-75833.1
518.55	-75833.1
518.7	-75833.1
518.85	-75833.1
519	-75833.1
519.15	-75833.1
519.3	-75833.1
519.45	-75833.1
519.6	-75833.1
519.75	-75833.1
519.9	-75833.1
520.05	-75833.1
520.2	-75833.1
520.35	-75833.1
520.5	-75833.1
520.65	-75833.1
520.8	-75833.1
520.95	-75833.1
521.1	-75833.1
521.25	-75833.1
521.4	-75833.1
521.55	-75833.1
521.7	-75833.1
521.85	-75833.1
522	-71410.2
522.15	-53455.8
522.3	-52173.5
522.45	-52173.5
522.6	-52173.5
522.75	-52173.5
522.9	-52173.5
523.05	-52173.5
523.2	-52173.5
523.35	-52173.5
523.5	-52173.5
523.65	-52173.5
523.8	-52173.5
523.95	-52173.5
524.1	-52173.5
524.25	-52173.5
524.4	-52173.5
524.55	-52173.5
524.7	-52173.5
524.85	-52173.5
525	-52173.5
525.15	-52173.5
525.3	-52173.5
525.45	-52173.5
525.6	-52173.5
525.75	-52173.5
525.9	-52173.5
526.05	-52173.5
526.2	43282.2
526.35	83896.9
526.5	87798.7
526.65	87798.7
526.8	87798.7
526.95	87798.7
527.1	87798.7
527.25	87798.7
527.4	87798.7
527.55	87798.7
527.7	87798.7
527.85	87798.7
528	87798.7
528.15	87798.7
528.3	87798.7
528.45	87798.7
528.6	87798.7
528.75	87798.7
528.9	87798.7
529.05	87798.7
529.2	87798.7
529.35	87798.7
529.5	87798.7
529.65	87798.7
529.8	87798.7
529.95	87798.7
530.1	87798.7
530.25	88100.4
530.4	93597.7
530.55	104005
530.7	104005
530.85	104005
531	104005
531.15	104005
531.3	104005
531.45	104005
531.6	104005
531.75	104005
531.9	104005
532.05	104005
532.2	104005
532.35	104005
532.5	104005
532.65	104005
532.8	104005
532.95	104005
533.1	104005
533.25	104005
533.4	104005
533.55	104005
533.7	104005
533.85	104005
534	104005
534.15	104005
534.3	104005
534.45	104005
534.6	29819.2
534.75	-44255.9
534.9	-53740.4
535.05	-53740.4
535.2	-53740.4
535.35	-53740.4
535.5	-53740.4
535.65	-53740.4
535.8	-53740.4
535.95	-53740.4
536.1	-53740.4
536.25	-53740.4
536.4	-53740.4
536.55	-53740.4
536.7	-53740.4
536.85	-53740.4
537	-53740.4
537.15	-53740.4
537.3	-53740.4
537.45	-53740.4
537.6	-53740.4
537.75	-53740.4
537.9	-53740.4
538.05	-53740.4
538.2	-53740.4
538.35	-53740.4
538.5	-53740.4
538.65	-90381.8
538.8	-166896
538.95	-208625
539.1	-208625
539.25	-208625
539.4	-208625
539.55	-208625
539.7	-208625
539.85	-208625
540	-208625
540.15	-208625
540.3	-208625
540.45	-208625
540.6	-208625
540.75	-208625
540.9	-208625
541.05	-208625
541.2	-208625
541.35	-208625
541.5	-208625
541.65	-208625
541.8	-208625
541.95	-208625
542.1	-208625
542.25	-208625
542.4	-208625
542.55	-209277
542.7	-224955
542.85	-230387
543	-230387
543.15	-230387
543.3	-230387
543.45	-230387
543.6	-230387
543.75	-230387
543.9	-230387
544.05	-230387
544.2	-230387
544.35	-230387
544.5	-230387
544.65	-230387
544.8	-230387
544.95	-230387
545.1	-230387
545.25	-230387
545.4	-230387
545.55	-230387
545.7	-230387
545.85	-230387
546	-230387
546.15	-230387
546.3	-230387
546.45	-230387
546.6	-221451
546.75	-157868
546.9	-120354
547.05	-120354
547.2	-120354
547.35	-120354
547.5	-120354
547.65	-120354
547.8	-120354
547.95	-120354
548.1	-120354
548.25	-120354
548.4	-120354
548.55	-120354
548.7	-120354
548.85	-120354
549	-120354
549.15	-120354
549.3	-120354
549.45	-120354
549.6	-120354
549.75	-120354
549.9	-120354
550.05	-120354
550.2	-120354
550.35	-120354
550.5	-96048.8
550.65	14362.2
550.8	89482.2
550.95	89482.2
551.1	89482.2
551.25	89482.2
551.4	89482.2
551.55	89482.2
551.7	89482.2
551.85	89482.2
552	89482.2
552.15	89482.2
552.3	89482.2
552.45	89482.2
552.6	89482.2
552.75	89482.2
552.9	89482.2
553.05	89482.2
553.2	89482.2
553.35	89482.2
553.5	89482.2
553.65	89482.2
553.8	89482.2
553.95	89482.2
554.1	89482.2
554.25	89482.2
554.4	89482.2
554.55	89482.2
554.7	89482.2
554.85	228878
555	309102
555.15	321558
555.3	321558
555.45	321558
555.6	321558
555.75	321558
555.9	321558
556.05	321558
556.2	321558
556.35	321558
556.5	321558
556.65	321558
556.8	321558
556.95	321558
557.1	321558
557.25	321558
557.4	321558
557.55	321558
557.7	321558
557.85	321558
558	321558
558.15	321558
558.3	321558
558.45	321558
558.6	321558
558.75	321558
558.9	321558
559.05	347886
559.2	408455
559.35	414708
559.5	414708
559.65	414708
559.8	414708
559.95	414708
560.1	414708
560.25	414708
560.4	414708
560.55	414708
560.7	414708
560.85	414708
561	414708
561.15	414708
561.3	414708
561.45	414708
561.6	414708
561.75	414708
561.9	414708
562.05	414708
562.2	414708
562.35	414708
562.5	414708
562.65	414708
562.8	414708
562.95	414708
563.1	414708
563.25	414708
563.4	371868
563.55	287895
563.7	274077
563.85	274077
564	274077
564.15	274077
564.3	274077
564.45	274077
564.6	274077
564.75	274077
564.9	274077
565.05	274077
565.2	274077
565.35	274077
565.5	274077
565.65	274077
565.8	274077
565.95	274077
566.1	274077
566.25	274077
566.4	274077
566.55	274077
566.7	274077
566.85	274077
567	274077
567.15	274077
567.3	274077
567.45	274077
567.6	244296
567.75	126895
567.9	13493.7
568.05	13493.7
568.2	13493.7
568.35	13493.7
568.5	13493.7
568.65	13493.7
568.8	13493.7
568.95	13493.7
569.1	13493.7
569.25	13493.7
569.4	13493.7
569.55	13493.7
569.7	13493.7
569.85	13493.7
570	13493.7
570.15	13493.7
570.3	13493.7
570.45	13493.7
570.6	13493.7
570.75	13493.7
570.9	13493.7
571.05	13493.7
571.2	11100.7
571.35	-60931.3
571.5	-60931.3
571.65	-60931.3
571.8	-60931.3
571.95	-60931.3
572.1	-99700.2
572.25	-162524
572.4	-162524
572.55	-162524
572.7	-162524
572.85	-162524
573	-162524
573.15	-162524
573.3	-162524
573.45	-162524
573.6	-162524
573.75	-162524
573.9	-162524
574.05	-162524
574.2	-162524
574.35	-162524
574.5	-162524
574.65	-162524
574.8	-162524
574.95	-162524
575.1	-164986
575.25	-168975
575.4	-168975
575.55	-168975
575.7	-168975
575.85	-168975
576	-168975
576.15	-176156
576.3	-179020
576.45	-179020
576.6	-179020
576.75	-179020
576.9	-179020
577.05	-179020
577.2	-179020
577.35	-179020
577.5	-179020
577.65	-179020
577.8	-179020
577.95	-179020
578.1	-179020
578.25	-179020
578.4	-179020
578.55	-179020
578.7	-179020
578.85	-179020
579	-179020
579.15	-164563
579.3	-158795
579.45	-158795
579.6	-158795
579.75	-158795
579.9	-158795
580.05	-157463
580.2	-131286
580.35	-131286
580.5	-131286
580.65	-131286
580.8	-131286
580.95	-131286
581.1	-131286
581.25	-131286
581.4	-131286
581.55	-131286
581.7	-131286
581.85	-131286
582	-131286
582.15	-131286
582.3	-131286
582.45	-131286
582.6	-131286
582.75	-131286
582.9	-131286
583.05	-131519
583.2	-136093
583.35	-136093
583.5	-136093
583.65	-136093
583.8	-136093
583.95	-136093
584.1	-138278
584.25	-141819
584.4	-141819
584.55	-141819
584.7	-141819
584.85	-141819
585	-141819
585.15	-141819
585.3	-141819
585.45	-141819
585.6	-141819
585.75	-141819
585.9	-141819
586.05	-141819
586.2	-141819
586.35	-141819
586.5	-141819
586.65	-141819
586.8	-141819
586.95	-141819
587.1	-150906
587.25	-165629
587.4	-165629
587.55	-165629
587.7	-165629
587.85	-179474
588	-213693
588.15	-213693
588.3	-213693
588.45	-213693
588.6	-213693
588.75	-213693
588.9	-213693
589.05	-213693
589.2	-213693
589.35	-213693
589.5	-213693
589.65	-213693
589.8	-213693
589.95	-213693
590.1	-213693
590.25	-213693
590.4	-213693
590.55	-213693
590.7	-213693
590.85	-213693
591	-213693
591.15	-213693
591.3	-224510
591.45	-225248
591.6	-225248
591.75	-225248
591.9	-225248
592.05	-225248
592.2	-227010
592.35	-231789
592.5	-231789
592.65	-231789
592.8	-231789
592.95	-231789
593.1	-231789
593.25	-231789
593.4	-231789
593.55	-231789
593.7	-231789
593.85	-231789
594	-231789
594.15	-231789
594.3	-231789
594.45	-231789
594.6	-231789
594.75	-231789
594.9	-231789
595.05	-231789
595.2	-212248
595.35	-159263
595.5	-159263
595.65	-159263
595.8	-159263
595.95	-159263
596.1	-159263
596.25	-137845
596.4	-123730
596.55	-123730
596.7	-123730
596.85	-123730
597	-123730
597.15	-123730
597.3	-123730
597.45	-123730
597.6	-123730
597.75	-123730
597.9	-123730
598.05	-123730
598.2	-123730
598.35	-123730
598.5	-123730
598.65	-123730
598.8	-123730
598.95	-123730
599.1	-123730
599.25	-123730
599.4	-123730
599.55	-115419
599.7	24363.2
599.85	25853
600	25853
600.15	25853
600.3	25853
600.45	25853
600.6	25853
600.75	25853
600.9	25853
601.05	25853
601.2	25853
601.35	25853
601.5	25853
601.65	25853
601.8	25853
601.95	25853
602.1	25853
602.25	25853
602.4	25853
602.55	25853
602.7	25853
602.85	25853
603	25853
603.15	25853
603.3	25853
603.45	25853
603.6	25853
603.75	56860.9
603.9	91079.6
604.05	101103
604.2	101103
604.35	101103
604.5	101103
604.65	101103
604.8	101103
604.95	101103
605.1	101103
605.25	101103
605.4	101103
605.55	101103
605.7	101103
605.85	101103
606	101103
606.15	101103
606.3	101103
606.45	101103
606.6	101103
606.75	101103
606.9	101103
607.05	101103
607.2	101103
607.35	101103
607.5	101103
607.65	101103
607.8	101103
607.95	103733
608.1	117906
608.25	127774
608.4	127774
608.55	127774
608.7	127774
608.85	127774
609	127774
609.15	127774
609.3	127774
609.45	127774
609.6	127774
609.75	127774
609.9	127774
610.05	127774
610.2	127774
610.35	127774
610.5	127774
610.65	127774
610.8	127774
610.95	127774
611.1	127774
611.25	127774
611.4	127774
611.55	127774
611.7	127774
611.85	127774
612	127774
612.15	127774
612.3	131692
612.45	169608
612.6	184335
612.75	184335
612.9	184335
613.05	184335
613.2	184335
613.35	184335
613.5	184335
613.65	184335
613.8	184335
613.95	184335
614.1	184335
614.25	184335
614.4	184335
614.55	184335
614.7	184335
614.85	184335
615	184335
615.15	184335
615.3	184335
615.45	184335
615.6	184335
615.75	184335
615.9	184335
616.05	184335
616.2	184335
616.35	184335
616.5	186552
616.65	200432
616.8	223224
616.95	223224
617.1	223224
617.25	223224
617.4	223224
617.55	223224
617.7	223224
617.85	223224
618	223224
618.15	223224
618.3	223224
618.45	223224
618.6	223224
618.75	223224
618.9	223224
619.05	223224
619.2	223224
619.35	223224
619.5	223224
619.65	223224
619.8	223224
619.95	223224
620.1	223224
620.25	223224
620.4	223224
620.55	223224
620.7	223224
620.85	223224
621	202450
621.15	172788
621.3	166537
621.45	166537
621.6	166537
621.75	166537
621.9	166537
622.05	166537
622.2	166537
622.35	166537
622.5	166537
622.65	166537
622.8	166537
622.95	166537
623.1	166537
623.25	166537
623.4	166537
623.55	166537
623.7	166537
623.85	166537
624	166537
624.15	166537
624.3	166537
624.45	166537
624.6	166537
624.75	166537
624.9	166537
625.05	166537
625.2	166537
625.35	160860
625.5	130602
625.65	91462.4
625.8	91462.4
625.95	91462.4
626.1	91462.4
626.25	91462.4
626.4	91462.4
626.55	91462.4
626.7	91462.4
626.85	91462.4
627	91462.4
627.15	91462.4
627.3	91462.4
627.45	91462.4
627.6	91462.4
627.75	91462.4
627.9	91462.4
628.05	91462.4
628.2	91462.4
628.35	91462.4
628.5	91462.4
628.65	91462.4
628.8	91462.4
628.95	91462.4
629.1	91462.4
629.25	91462.4
629.4	91462.4
629.55	91462.4
629.7	99733.8
629.85	101413
630	101514
630.15	101514
630.3	101514
630.45	101514
630.6	101514
630.75	101514
630.9	101514
631.05	101514
631.2	101514
631.35	101514
631.5	101514
631.65	101514
631.8	101514
631.95	101514
632.1	101514
632.25	101514
632.4	101514
632.55	101514
632.7	101514
632.85	101514
633	101514
633.15	101514
633.3	101514
633.45	101514
633.6	101514
633.75	101514
633.9	103080
634.05	105772
634.2	106821
634.35	106821
634.5	106821
634.65	106821
634.8	106821
634.95	106821
635.1	106821
635.25	106821
635.4	106821
635.55	106821
635.7	106821
635.85	106821
636	106821
636.15	106821
636.3	106821
636.45	106821
636.6	106821
636.75	106821
636.9	106821
637.05	106821
637.2	106821
637.35	106821
637.5	106821
637.65	106821
637.8	106821
637.95	106821
638.1	106821
638.25	106821
638.4	-19597
638.55	-27665.4
638.7	-27838.3
638.85	-27838.3
639	-27838.3
639.15	-27838.3
639.3	-27838.3
639.45	-27838.3
639.6	-27838.3
639.75	-27838.3
639.9	-27838.3
640.05	-27838.3
640.2	-27838.3
640.35	-27838.3
640.5	-27838.3
640.65	-27838.3
640.8	-27838.3
640.95	-27838.3
641.1	-27838.3
641.25	-27838.3
641.4	-27838.3
641.55	-27838.3
641.7	-27838.3
641.85	-27838.3
642	-27838.3
642.15	-27838.3
642.3	-27838.3
642.45	-107836
642.6	-194760
642.75	-214914
642.9	-214914
643.05	-214914
643.2	-214914
643.35	-214914
643.5	-214914
643.65	-214914
643.8	-214914
643.95	-214914
644.1	-214914
644.25	-214914
644.4	-214914
644.55	-214914
644.7	-214914
644.85	-214914
645	-214914
645.15	-214914
645.3	-214914
645.45	-214914
645.6	-214914
645.75	-214914
645.9	-214914
646.05	-214914
646.2	-214914
646.35	-216454
646.5	-231639
646.65	-272660
646.8	-272660
646.95	-272660
647.1	-272660
647.25	-272660
647.4	-272660
647.55	-272660
647.7	-272660
647.85	-272660
648	-272660
648.15	-272660
648.3	-272660
648.45	-272660
648.6	-272660
648.75	-272660
648.9	-272660
649.05	-272660
649.2	-272660
649.35	-272660
649.5	-272660
649.65	-272660
649.8	-272660
649.95	-272660
650.1	-272660
650.25	-272660
650.4	-272660
650.55	-249311
650.7	-224564
650.85	-217885
651	-217885
651.15	-217885
651.3	-217885
651.45	-217885
651.6	-217885
651.75	-217885
651.9	-217885
652.05	-217885
652.2	-217885
652.35	-217885
652.5	-217885
652.65	-217885
652.8	-217885
652.95	-217885
653.1	-217885
653.25	-217885
653.4	-217885
653.55	-217885
653.7	-217885
653.85	-217885
654	-217885
654.15	-217885
654.3	-217885
654.45	-217885
654.6	-208894
654.75	-185025
654.9	-182842
655.05	-182842
655.2	-182842
655.35	-182842
655.5	-182842
655.65	-182842
655.8	-182842
655.95	-182842
656.1	-182842
656.25	-182842
656.4	-182842
656.55	-182842
656.7	-182842
656.85	-182842
657	-182842
657.15	-182842
657.3	-182842
657.45	-182842
657.6	-182842
657.75	-182842
657.9	-182842
658.05	-182842
658.2	-182842
658.35	-182842
658.5	-182842
658.65	-175745
658.8	-155283
658.95	-151822
659.1	-151822
659.25	-151822
659.4	-151822
659.55	-151822
659.7	-151822
659.85	-151822
660	-151822
660.15	-151822
660.3	-151822
660.45	-151822
660.6	-151822
660.75	-151822
660.9	-151822
661.05	-151822
661.2	-151822
661.35	-151822
661.5	-151822
661.65	-151822
661.8	-151822
661.95	-151822
662.1	-151822
662.25	-151822
662.4	-151822
662.55	-151822
662.7	-137583
662.85	-81651.5
663	-29430
663.15	-29430
663.3	-29430
663.45	-29430
663.6	-29430
663.75	-29430
663.9	-29430
664.05	-29430
664.2	-29430
664.35	-29430
664.5	-29430
664.65	-29430
664.8	-29430
664.95	-29430
665.1	-29430
665.25	-29430
665.4	-29430
665.55	-29430
665.7	-29430
665.85	-29430
666	-29430
666.15	-29430
666.3	-29430
666.45	-29430
666.6	-29430
666.75	-29430
666.9	-29430
667.05	93965.3
667.2	130287
667.35	131413
667.5	131413
667.65	131413
667.8	131413
667.95	131413
668.1	131413
668.25	131413
668.4	131413
668.55	131413
668.7	131413
668.85	131413
669	131413
669.15	131413
669.3	131413
669.45	131413
669.6	131413
669.75	131413
669.9	131413
670.05	131413
670.2	131413
670.35	131413
670.5	131413
670.65	131413
670.8	131413
670.95	131413
671.1	131413
671.25	142436
671.4	176731
671.55	199586
671.7	199586
671.85	199586
672	199586
672.15	199586
672.3	199586
672.45	199586
672.6	199586
672.75	199586
672.9	199586
673.05	199586
673.2	199586
673.35	199586
673.5	199586
673.65	199586
673.8	199586
673.95	199586
674.1	199586
674.25	199586
674.4	199586
674.55	199586
674.7	199586
674.85	199586
675	199586
675.15	199586
675.3	199586
675.45	199586
675.6	198245
675.75	180592
675.9	172744
676.05	172744
676.2	172744
676.35	172744
676.5	172744
676.65	172744
676.8	172744
676.95	172744
677.1	172744
677.25	172744
677.4	172744
677.55	172744
677.7	172744
677.85	172744
678	172744
678.15	172744
678.3	172744
678.45	172744
678.6	172744
678.75	172744
678.9	172744
679.05	172744
679.2	172744
679.35	172744
679.5	172744
679.65	172744
679.8	172744
679.95	172629
680.1	147253
680.25	130950
680.4	130950
680.55	130950
680.7	130950
680.85	130950
681	130950
681.15	130950
681.3	130950
681.45	130950
681.6	130950
681.75	130950
681.9	130950
682.05	130950
682.2	130950
682.35	130950
682.5	130950
682.65	130950
682.8	130950
682.95	130950
683.1	130950
683.25	130950
683.4	130950
683.55	130950
683.7	130950
683.85	130950
684	130950
684.15	130950
684.3	129195
684.45	115422
684.6	88248
684.75	88248
684.9	88248
685.05	88248
685.2	88248
685.35	88248
685.5	88248
685.65	88248
685.8	88248
685.95	88248
686.1	88248
686.25	88248
686.4	88248
686.55	88248
686.7	88248
686.85	88248
687	88248
687.15	88248
687.3	88248
687.45	88248
687.6	88248
687.75	88248
687.9	88248
688.05	88248
688.2	88248
688.35	88248
688.5	88248
688.65	88248
688.8	63187
688.95	40533.4
689.1	35024.2
689.25	35024.2
689.4	35024.2
689.55	35024.2
689.7	35024.2
689.85	35024.2
690	35024.2
690.15	35024.2
690.3	35024.2
690.45	35024.2
690.6	35024.2
690.75	35024.2
690.9	35024.2
691.05	35024.2
691.2	35024.2
691.35	35024.2
691.5	35024.2
691.65	35024.2
691.8	35024.2
691.95	35024.2
692.1	35024.2
692.25	35024.2
692.4	35024.2
692.55	35024.2
692.7	35024.2
692.85	35024.2
693	34486.1
693.15	26519
693.3	5586.22
693.45	5586.22
693.6	5586.22
693.75	5586.22
693.9	5586.22
694.05	5586.22
694.2	5586.22
694.35	5586.22
694.5	5586.22
694.65	5586.22
694.8	5586.22
694.95	5586.22
695.1	5586.22
695.25	5586.22
695.4	5586.22
695.55	5586.22
695.7	5586.22
695.85	5586.22
696	5586.22
696.15	5586.22
696.3	5586.22
696.45	5586.22
696.6	5586.22
696.75	5586.22
696.9	5586.22
697.05	5586.22
697.2	5586.22
697.35	5586.22
697.5	-1130.83
697.65	-5726.4
697.8	-6556.07
697.95	-6556.07
698.1	-6556.07
698.25	-6556.07
698.4	-6556.07
698.55	-6556.07
698.7	-6556.07
698.85	-6556.07
699	-6556.07
699.15	-6556.07
699.3	-6556.07
699.45	-6556.07
699.6	-6556.07
699.75	-6556.07
699.9	-6556.07
700.05	-6556.07
700.2	-6556.07
700.35	-6556.07
700.5	-6556.07
700.65	-6556.07
700.8	-6556.07
700.95	-6556.07
701.1	-6556.07
701.25	-6556.07
701.4	-6556.07
701.55	-6556.07
701.7	-6556.07
701.85	-23622
702	-60139.8
702.15	-60786.5
702.3	-60786.5
702.45	-60786.5
702.6	-60786.5
702.75	-60786.5
702.9	-60786.5
703.05	-60786.5
703.2	-60786.5
703.35	-60786.5
703.5	-60786.5
703.65	-60786.5
703.8	-60786.5
703.95	-60786.5
704.1	-60786.5
704.25	-60786.5
704.4	-60786.5
704.55	-60786.5
704.7	-60786.5
704.85	-60786.5
705	-60786.5
705.15	-60786.5
705.3	-60786.5
705.45	-60786.5
705.6	-60786.5
705.75	-60786.5
705.9	-60786.5
706.05	-60786.5
706.2	-89507.5
706.35	-122843
706.5	-127744
706.65	-127744
706.8	-127744
706.95	-127744
707.1	-127744
707.25	-127744
707.4	-127744
707.55	-127744
707.7	-127744
707.85	-127744
708	-127744
708.15	-127744
708.3	-127744
708.45	-127744
708.6	-127744
708.75	-127744
708.9	-127744
709.05	-127744
709.2	-127744
709.35	-127744
709.5	-127744
709.65	-127744
709.8	-127744
709.95	-127744
710.1	-127744
710.25	-127744
710.4	-124626
710.55	-114690
710.7	-106436
710.85	-106436
711	-106436
711.15	-106436
711.3	-106436
711.45	-106436
711.6	-106436
711.75	-106436
711.9	-106436
712.05	-106436
712.2	-106436
712.35	-106436
712.5	-106436
712.65	-106436
712.8	-106436
712.95	-106436
713.1	-106436
713.25	-106436
713.4	-106436
713.55	-106436
713.7	-106436
713.85	-106436
714	-106436
714.15	-106436
714.3	-106436
714.45	-106436
714.6	-106436
714.75	-106436
714.9	-40077.8
715.05	-21150.1
715.2	-20195.5
715.35	-20195.5
715.5	-20195.5
715.65	-20195.5
715.8	-20195.5
715.95	-20195.5
716.1	-20195.5
716.25	-20195.5
716.4	-20195.5
716.55	-20195.5
716.7	-20195.5
716.85	-20195.5
717	-20195.5
717.15	-20195.5
717.3	-20195.5
717.45	-20195.5
717.6	-20195.5
717.75	-20195.5
717.9	-20195.5
718.05	-20195.5
718.2	-20195.5
718.35	-20195.5
718.5	-20195.5
718.65	-20195.5
718.8	-20195.5
718.95	-20195.5
719.1	-19161.8
719.25	-4106.01
719.4	10184.7
719.55	10184.7
719.7	10184.7
719.85	10184.7
720	10184.7
720.15	10184.7
720.3	10184.7
720.45	10184.7
720.6	10184.7
720.75	10184.7
720.9	10184.7
721.05	10184.7
721.2	10184.7
721.35	10184.7
721.5	10184.7
721.65	10184.7
721.8	10184.7
721.95	10184.7
722.1	10184.7
722.25	10184.7
722.4	10184.7
722.55	10184.7
722.7	10184.7
722.85	10184.7
723	10184.7
723.15	10184.7
723.3	10184.7
723.45	10175.5
723.6	9659.3
723.75	-402.564
723.9	-402.564
724.05	-402.564
724.2	-402.564
724.35	-402.564
724.5	-402.564
724.65	-402.564
724.8	-402.564
724.95	-402.564
725.1	-402.564
725.25	-402.564
725.4	-402.564
725.55	-402.564
725.7	-402.564
725.85	-402.564
726	-402.564
726.15	-402.564
726.3	-402.564
726.45	-402.564
726.6	-402.564
726.75	-402.564
726.9	-402.564
727.05	-402.564
727.2	-402.564
727.35	-402.564
727.5	-402.564
727.65	-402.564
727.8	-402.564
727.95	2774.68
728.1	34027.2
728.25	56044.4
728.4	56044.4
728.55	56044.4
728.7	56044.4
728.85	56044.4
729	56044.4
729.15	56044.4
729.3	56044.4
729.45	56044.4
729.6	56044.4
729.75	56044.4
729.9	56044.4
730.05	56044.4
730.2	56044.4
730.35	56044.4
730.5	56044.4
730.65	56044.4
730.8	56044.4
730.95	56044.4
731.1	56044.4
731.25	56044.4
731.4	56044.4
731.55	56044.4
731.7	56044.4
731.85	56044.4
732	56044.4
732.15	56044.4
732.3	56044.4
732.45	60923.6
732.6	103778
732.75	113116
732.9	113116
733.05	113116
733.2	113116
733.35	113116
733.5	113116
733.65	113116
733.8	113116
733.95	113116
734.1	113116
734.25	113116
734.4	113116
734.55	113116
734.7	113116
734.85	113116
735	113116
735.15	113116
735.3	113116
735.45	113116
735.6	113116
735.75	113116
735.9	113116
736.05	113116
736.2	113116
736.35	113116
736.5	113116
736.65	113116
736.8	113116
736.95	70395.2
737.1	24042.1
737.25	10582.7
737.4	10582.7
737.55	10582.7
737.7	10582.7
737.85	10582.7
738	10582.7
738.15	10582.7
738.3	10582.7
738.45	10582.7
738.6	10582.7
738.75	10582.7
738.9	10582.7
739.05	10582.7
739.2	10582.7
739.35	10582.7
739.5	10582.7
739.65	10582.7
739.8	10582.7
739.95	10582.7
740.1	10582.7
740.25	10582.7
740.4	10582.7
740.55	10582.7
740.7	10582.7
740.85	10582.7
741	10582.7
741.15	10582.7
741.3	-7467.55
741.45	-102426
741.6	-157801
741.75	-157801
741.9	-157801
742.05	-157801
742.2	-157801
742.35	-157801
742.5	-157801
742.65	-157801
742.8	-157801
742.95	-157801
743.1	-157801
743.25	-157801
743.4	-157801
743.55	-157801
743.7	-157801
743.85	-157801
744	-157801
744.15	-157801
744.3	-157801
744.45	-157801
744.6	-157801
744.75	-157801
744.9	-157801
745.05	-157801
745.2	-157801
745.35	-157801
745.5	-157801
745.65	-150533
745.8	-135446
745.95	-130449
746.1	-130449
746.25	-130449
746.4	-130449
746.55	-130449
746.7	-130449
746.85	-130449
747	-130449
747.15	-130449
747.3	-130449
747.45	-130449
747.6	-130449
747.75	-130449
747.9	-130449
748.05	-130449
748.2	-130449
748.35	-130449
748.5	-130449
748.65	-130449
748.8	-130449
748.95	-130449
749.1	-130449
749.25	-130449
749.4	-130449
749.55	-130449
749.7	-130449
749.85	-108874
750	-22012.2
750.15	65655.4
750.3	65655.4
750.45	65655.4
750.6	65655.4
750.75	65655.4
750.9	65655.4
751.05	65655.4
751.2	65655.4
751.35	65655.4
751.5	65655.4
751.65	65655.4
751.8	65655.4
751.95	65655.4
752.1	65655.4
752.25	65655.4
752.4	65655.4
752.55	65655.4
752.7	65655.4
752.85	65655.4
753	65655.4
753.15	65655.4
753.3	65655.4
753.45	65655.4
753.6	65655.4
753.75	65655.4
753.9	65655.4
754.05	65655.4
754.2	65655.4
754.35	84394.6
754.5	122285
754.65	130694
754.8	130694
754.95	130694
755.1	130694
755.25	130694
755.4	130694
755.55	130694
755.7	130694
755.85	130694
756	130694
756.15	130694
756.3	130694
756.45	130694
756.6	130694
756.75	130694
756.9	130694
757.05	130694
757.2	130694
757.35	130694
757.5	130694
757.65	130694
757.8	130694
757.95	130694
758.1	130694
758.25	130694
758.4	130694
758.55	130694
758.7	130694
758.85	89918.5
759	8663.79
759.15	7194.89
759.3	7194.89
759.45	7194.89
759.6	7194.89
759.75	7194.89
759.9	7194.89
760.05	7194.89
760.2	7194.89
760.35	7194.89
760.5	7194.89
760.65	7194.89
760.8	7194.89
760.95	7194.89
761.1	7194.89
761.25	7194.89
761.4	7194.89
761.55	7194.89
761.7	7194.89
761.85	7194.89
762	7194.89
762.15	7194.89
762.3	7194.89
762.45	7194.89
762.6	7194.89
762.75	7194.89
762.9	7194.89
763.05	7194.89
763.2	-3647.23
763.35	-35796
763.5	-40305.1
763.65	-40305.1
763.8	-40305.1
763.95	-40305.1
764.1	-40305.1
764.25	-40305.1
764.4	-40305.1
764.55	-40305.1
764.7	-40305.1
764.85	-40305.1
765	-40305.1
765.15	-40305.1
765.3	-40305.1
765.45	-40305.1
765.6	-40305.1
765.75	-40305.1
765.9	-40305.1
766.05	-40305.1
766.2	-40305.1
766.35	-40305.1
766.5	-40305.1
766.65	-40305.1
766.8	-40305.1
766.95	-40305.1
767.1	-40305.1
767.25	-40305.1
767.4	-40305.1
767.55	-2681.43
767.7	56002.6
767.85	67080.1
768	67080.1
768.15	67080.1
768.3	67080.1
768.45	67080.1
768.6	67080.1
768.75	67080.1
768.9	67080.1
769.05	67080.1
769.2	67080.1
769.35	67080.1
769.5	67080.1
769.65	67080.1
769.8	67080.1
769.95	67080.1
770.1	67080.1
770.25	67080.1
770.4	67080.1
770.55	67080.1
770.7	67080.1
770.85	67080.1
771	67080.1
771.15	67080.1
771.3	67080.1
771.45	67080.1
771.6	67080.1
771.75	67080.1
771.9	71776.1
772.05	86230.4
772.2	86825.8
772.35	86825.8
772.5	86825.8
772.65	86825.8
772.8	86825.8
772.95	86825.8
773.1	86825.8
773.25	86825.8
773.4	86825.8
773.55	86825.8
773.7	86825.8
773.85	86825.8
774	86825.8
774.15	86825.8
774.3	86825.8
774.45	86825.8
774.6	86825.8
774.75	86825.8
774.9	86825.8
775.05	86825.8
775.2	86825.8
775.35	86825.8
775.5	86825.8
775.65	86825.8
775.8	86825.8
775.95	86825.8
776.1	86825.8
776.25	86825.8
776.4	44430.3
776.55	-26163.5
776.7	-55950.3
776.85	-55950.3
777	-55950.3
777.15	-55950.3
777.3	-55950.3
777.45	-55950.3
777.6	-55950.3
777.75	-55950.3
777.9	-55950.3
778.05	-55950.3
778.2	-55950.3
778.35	-55950.3
778.5	-55950.3
778.65	-55950.3
778.8	-55950.3
778.95	-55950.3
779.1	-55950.3
779.25	-55950.3
779.4	-55950.3
779.55	-55950.3
779.7	-55950.3
779.85	-55950.3
780	-55950.3
780.15	-55950.3
780.3	-55950.3
780.45	-55950.3
780.6	-57176.4
780.75	-82130.4
780.9	-107842
781.05	-107842
781.2	-107842
781.35	-107842
781.5	-107842
781.65	-107842
781.8	-107842
781.95	-107842
782.1	-107842
782.25	-107842
782.4	-107842
782.55	-107842
782.7	-107842
782.85	-107842
783	-107842
783.15	-107842
783.3	-107842
783.45	-107842
783.6	-107842
783.75	-107842
783.9	-107842
784.05	-107842
784.2	-107842
784.35	-107842
784.5	-107842
784.65	-107842
784.8	-107842
784.95	-48483.7
785.1	9284.02
785.25	22271.8
785.4	22271.8
785.55	22271.8
785.7	22271.8
785.85	22271.8
786	22271.8
786.15	22271.8
786.3	22271.8
786.45	22271.8
786.6	22271.8
786.75	22271.8
786.9	22271.8
787.05	22271.8
787.2	22271.8
787.35	22271.8
787.5	22271.8
787.65	22271.8
787.8	22271.8
787.95	22271.8
788.1	22271.8
788.25	22271.8
788.4	22271.8
788.55	22271.8
788.7	22271.8
788.85	22271.8
789	22271.8
789.15	22271.8
789.3	23909
789.45	38932.9
789.6	73003
789.75	73003
789.9	73003
790.05	73003
790.2	73003
790.35	73003
790.5	73003
790.65	73003
790.8	73003
790.95	73003
791.1	73003
791.25	73003
791.4	73003
791.55	73003
791.7	73003
791.85	73003
792	73003
792.15	73003
792.3	73003
792.45	73003
792.6	73003
792.75	73003
792.9	73003
793.05	73003
793.2	73003
793.35	73003
793.5	73003
793.65	73003
793.8	1435
793.95	-57832.7
794.1	-70596.8
794.25	-70596.8
794.4	-70596.8
794.55	-70596.8
794.7	-70596.8
794.85	-70596.8
795	-70596.8
795.15	-70596.8
795.3	-70596.8
795.45	-70596.8
795.6	-70596.8
795.75	-70596.8
795.9	-70596.8
796.05	-70596.8
796.2	-70596.8
796.35	-70596.8
796.5	-70596.8
796.65	-70596.8
796.8	-70596.8
796.95	-70596.8
797.1	-70596.8
797.25	-70596.8
797.4	-70596.8
797.55	-70596.8
797.7	-70596.8
797.85	-70596.8
798	-74838.9
798.15	-100238
798.3	-141004
798.45	-141004
798.6	-141004
798.75	-141004
798.9	-141004
799.05	-141004
799.2	-141004
799.35	-141004
799.5	-141004
799.65	-141004
799.8	-141004
799.95	-141004
800.1	-141004
800.25	-141004
800.4	-141004
800.55	-141004
800.7	-141004
800.85	-141004
801	-141004
801.15	-141004
801.3	-141004
801.45	-141004
801.6	-141004
801.75	-141004
801.9	-141004
802.05	-141004
802.2	-141004
802.35	-139460
802.5	-21900.4
802.65	15007.5
802.8	15007.5
802.95	15007.5
803.1	15007.5
803.25	15007.5
803.4	15007.5
803.55	15007.5
803.7	15007.5
803.85	15007.5
804	15007.5
804.15	15007.5
804.3	15007.5
804.45	15007.5
804.6	15007.5
804.75	15007.5
804.9	15007.5
805.05	15007.5
805.2	15007.5
805.35	15007.5
805.5	15007.5
805.65	15007.5
805.8	15007.5
805.95	15007.5
806.1	15007.5
806.25	15007.5
806.4	15007.5
806.55	15007.5
806.7	29865.6
806.85	85734.1
807	140700
807.15	140700
807.3	140700
807.45	140700
807.6	140700
807.75	140700
807.9	140700
808.05	140700
808.2	140700
808.35	140700
808.5	140700
808.65	140700
808.8	140700
808.95	140700
809.1	140700
809.25	140700
809.4	140700
809.55	140700
809.7	140700
809.85	140700
810	140700
810.15	140700
810.3	140700
810.45	140700
810.6	140700
810.75	140700
810.9	140700
811.05	140700
811.2	140700
811.35	64668.5
811.5	40254.9
811.65	38213.8
811.8	38213.8
811.95	38213.8
812.1	38213.8
812.25	38213.8
812.4	38213.8
812.55	38213.8
812.7	38213.8
812.85	38213.8
813	38213.8
813.15	38213.8
813.3	38213.8
813.45	38213.8
813.6	38213.8
813.75	38213.8
813.9	38213.8
814.05	38213.8
814.2	38213.8
814.35	38213.8
814.5	38213.8
814.65	38213.8
814.8	38213.8
814.95	38213.8
815.1	38213.8
815.25	38213.8
815.4	38213.8
815.55	38213.8
815.7	4782.42
815.85	-61045.7
816	-76664.3
816.15	-76664.3
816.3	-76664.3
816.45	-76664.3
816.6	-76664.3
816.75	-76664.3
816.9	-76664.3
817.05	-76664.3
817.2	-76664.3
817.35	-76664.3
817.5	-76664.3
817.65	-76664.3
817.8	-76664.3
817.95	-76664.3
818.1	-76664.3
818.25	-76664.3
818.4	-76664.3
818.55	-76664.3
818.7	-76664.3
818.85	-76664.3
819	-76664.3
819.15	-76664.3
819.3	-76664.3
819.45	-76664.3
819.6	-76664.3
819.75	-76664.3
819.9	-76664.3
820.05	-47272.7
820.2	9352.7
820.35	15072.1
820.5	15072.1
820.65	15072.1
820.8	15072.1
820.95	15072.1
821.1	15072.1
821.25	15072.1
821.4	15072.1
821.55	15072.1
821.7	15072.1
821.85	15072.1
822	15072.1
822.15	15072.1
822.3	15072.1
822.45	15072.1
822.6	15072.1
822.75	15072.1
822.9	15072.1
823.05	15072.1
823.2	15072.1
823.35	15072.1
823.5	15072.1
823.65	15072.1
823.8	15072.1
823.95	15072.1
824.1	15072.1
824.25	15072.1
824.4	41463.7
824.55	102994
824.7	141243
824.85	141243
825	141243
825.15	141243
825.3	141243
825.45	141243
825.6	141243
825.75	141243
825.9	141243
826.05	141243
826.2	141243
826.35	141243
826.5	141243
826.65	141243
826.8	141243
826.95	141243
827.1	141243
827.25	141243
827.4	141243
827.55	141243
827.7	141243
827.85	141243
828	141243
828.15	141243
828.3	141243
828.45	141243
828.6	141243
828.75	141243
828.9	141243
829.05	93705.8
829.2	71664.6
829.35	70797.5
829.5	70797.5
829.65	70797.5
829.8	70797.5
829.95	70797.5
830.1	70797.5
830.25	70797.5
830.4	70797.5
830.55	70797.5
830.7	70797.5
830.85	70797.5
831	70797.5
831.15	70797.5
831.3	70797.5
831.45	70797.5
831.6	70797.5
831.75	70797.5
831.9	70797.5
832.05	70797.5
832.2	70797.5
832.35	70797.5
832.5	70797.5
832.65	70797.5
832.8	70797.5
832.95	70797.5
833.1	70797.5
833.25	70797.5
833.4	66218.5
833.55	-8088.18
833.7	-79069.8
833.85	-79069.8
834	-79069.8
834.15	-79069.8
834.3	-79069.8
834.45	-79069.8
834.6	-79069.8
834.75	-79069.8
834.9	-79069.8
835.05	-79069.8
835.2	-79069.8
835.35	-79069.8
835.5	-79069.8
835.65	-79069.8
835.8	-79069.8
835.95	-79069.8
836.1	-79069.8
836.25	-79069.8
836.4	-79069.8
836.55	-79069.8
836.7	-79069.8
836.85	-79069.8
837	-79069.8
837.15	-79069.8
837.3	-79069.8
837.45	-79069.8
837.6	-79069.8
837.75	-79393.7
837.9	-85770
838.05	-86061.4
838.2	-86061.4
838.35	-86061.4
838.5	-86061.4
838.65	-86061.4
838.8	-86061.4
838.95	-86061.4
839.1	-86061.4
839.25	-86061.4
839.4	-86061.4
839.55	-86061.4
839.7	-86061.4
839.85	-86061.4
840	-86061.4
840.15	-86061.4
840.3	-86061.4
840.45	-86061.4
840.6	-86061.4
840.75	-86061.4
840.9	-86061.4
841.05	-86061.4
841.2	-86061.4
841.35	-86061.4
841.5	-86061.4
841.65	-86061.4
841.8	-86061.4
841.95	-86061.4
842.1	-86061.4
842.25	-62406.5
842.4	-23082.6
842.55	-5990.59
842.7	-5990.59
842.85	-5990.59
843	-5990.59
843.15	-5990.59
843.3	-5990.59
843.45	-5990.59
843.6	-5990.59
843.75	-5990.59
843.9	-5990.59
844.05	-5990.59
844.2	-5990.59
844.35	-5990.59
844.5	-5990.59
844.65	-5990.59
844.8	-5990.59
844.95	-5990.59
845.1	-5990.59
845.25	-5990.59
845.4	-5990.59
845.55	-5990.59
845.7	-5990.59
845.85	-5990.59
846	-5990.59
846.15	-5990.59
846.3	-5990.59
846.45	-5990.59
846.6	-6178
846.75	-7911.88
846.9	-11038.2
847.05	-11038.2
847.2	-11038.2
847.35	-11038.2
847.5	-11038.2
847.65	-11038.2
847.8	-11038.2
847.95	-11038.2
848.1	-11038.2
848.25	-11038.2
848.4	-11038.2
848.55	-11038.2
848.7	-11038.2
848.85	-11038.2
849	-11038.2
849.15	-11038.2
849.3	-11038.2
849.45	-11038.2
849.6	-11038.2
849.75	-11038.2
849.9	-11038.2
850.05	-11038.2
850.2	-11038.2
850.35	-11038.2
850.5	-11038.2
850.65	-11038.2
850.8	-11038.2
850.95	-11038.2
851.1	-17485.1
851.25	-50522.3
851.4	-67180
851.55	-67180
851.7	-67180
851.85	-67180
852	-67180
852.15	-67180
852.3	-67180
852.45	-67180
852.6	-67180
852.75	-67180
852.9	-67180
853.05	-67180
853.2	-67180
853.35	-67180
853.5	-67180
853.65	-67180
853.8	-67180
853.95	-67180
854.1	-67180
854.25	-67180
854.4	-67180
854.55	-67180
854.7	-67180
854.85	-67180
855	-67180
855.15	-67180
855.3	-67180
855.45	-67180
855.6	-64365.8
855.75	-50846.2
855.9	-48969.6
856.05	-48969.6
856.2	-48969.6
856.35	-48969.6
856.5	-48969.6
856.65	-48969.6
856.8	-48969.6
856.95	-48969.6
857.1	-48969.6
857.25	-48969.6
857.4	-48969.6
857.55	-48969.6
857.7	-48969.6
857.85	-48969.6
858	-48969.6
858.15	-48969.6
858.3	-48969.6
858.45	-48969.6
858.6	-48969.6
858.75	-48969.6
858.9	-48969.6
859.05	-48969.6
859.2	-48969.6
859.35	-48969.6
859.5	-48969.6
859.65	-48969.6
859.8	-48969.6
859.95	-48969.6
860.1	-35067.5
860.25	-3658.27
860.4	7599.04
860.55	7599.04
860.7	7599.04
860.85	7599.04
861	7599.04
861.15	7599.04
861.3	7599.04
861.45	7599.04
861.6	7599.04
861.75	7599.04
861.9	7599.04
862.05	7599.04
862.2	7599.04
862.35	7599.04
862.5	7599.04
862.65	7599.04
862.8	7599.04
862.95	7599.04
863.1	7599.04
863.25	7599.04
863.4	7599.04
863.55	7599.04
863.7	7599.04
863.85	7599.04
864	7599.04
864.15	7599.04
864.3	7599.04
864.45	7599.04
864.6	7034.25
864.75	5034.1
864.9	4550.19
865.05	4550.19
865.2	4550.19
865.35	4550.19
865.5	4550.19
865.65	4550.19
865.8	4550.19
865.95	4550.19
866.1	4550.19
866.25	4550.19
866.4	4550.19
866.55	4550.19
866.7	4550.19
866.85	4550.19
867	4550.19
867.15	4550.19
867.3	4550.19
867.45	4550.19
867.6	4550.19
867.75	4550.19
867.9	4550.19
868.05	4550.19
868.2	4550.19
868.35	4550.19
868.5	4550.19
868.65	4550.19
868.8	4550.19
868.95	4550.19
869.1	2923.36
869.25	-18078.1
869.4	-24833.5
869.55	-24833.5
869.7	-24833.5
869.85	-24833.5
870	-24833.5
870.15	-24833.5
870.3	-24833.5
870.45	-24833.5
870.6	-24833.5
870.75	-24833.5
870.9	-24833.5
871.05	-24833.5
871.2	-24833.5
871.35	-24833.5
871.5	-24833.5
871.65	-24833.5
871.8	-24833.5
871.95	-24833.5
872.1	-24833.5
872.25	-24833.5
872.4	-24833.5
872.55	-24833.5
872.7	-24833.5
872.85	-24833.5
873	-24833.5
873.15	-24833.5
873.3	-24833.5
873.45	-24833.5
873.6	-24695.8
873.75	-20819.4
873.9	-11363.3
874.05	-11363.3
874.2	-11363.3
874.35	-11363.3
874.5	-11363.3
874.65	-11363.3
874.8	-11363.3
874.95	-11363.3
875.1	-11363.3
875.25	-11363.3
875.4	-11363.3
875.55	-11363.3
875.7	-11363.3
875.85	-11363.3
876	-11363.3
876.15	-11363.3
876.3	-11363.3
876.45	-11363.3
876.6	-11363.3
876.75	-11363.3
876.9	-11363.3
877.05	-11363.3
877.2	-11363.3
877.35	-11363.3
877.5	-11363.3
877.65	-11363.3
877.8	-11363.3
877.95	-11363.3
878.1	-11363.3
878.25	1726.45
878.4	13507.1
878.55	15780.1
878.7	15780.1
878.85	15780.1
879	15780.1
879.15	15780.1
879.3	15780.1
879.45	15780.1
879.6	15780.1
879.75	15780.1
879.9	15780.1
880.05	15780.1
880.2	15780.1
880.35	15780.1
880.5	15780.1
880.65	15780.1
880.8	15780.1
880.95	15780.1
881.1	15780.1
881.25	15780.1
881.4	15780.1
881.55	15780.1
881.7	15780.1
881.85	15780.1
882	15780.1
882.15	15780.1
882.3	15780.1
882.45	15780.1
882.6	15780.1
882.75	17352.3
882.9	23469.5
883.05	29860.9
883.2	29860.9
883.35	29860.9
883.5	29860.9
883.65	29860.9
883.8	29860.9
883.95	29860.9
884.1	29860.9
884.25	29860.9
884.4	29860.9
884.55	29860.9
884.7	29860.9
884.85	29860.9
885	29860.9
885.15	29860.9
885.3	29860.9
885.45	29860.9
885.6	29860.9
885.75	29860.9
885.9	29860.9
886.05	29860.9
886.2	29860.9
886.35	29860.9
886.5	29860.9
886.65	29860.9
886.8	29860.9
886.95	29860.9
887.1	29860.9
887.25	29860.9
887.4	38640
887.55	65900.4
887.7	71073.4
887.85	71073.4
888	71073.4
888.15	71073.4
888.3	71073.4
888.45	71073.4
888.6	71073.4
888.75	71073.4
888.9	71073.4
889.05	71073.4
889.2	71073.4
889.35	71073.4
889.5	71073.4
889.65	71073.4
889.8	71073.4
889.95	71073.4
890.1	71073.4
890.25	71073.4
890.4	71073.4
890.55	71073.4
890.7	71073.4
890.85	71073.4
891	71073.4
891.15	71073.4
891.3	71073.4
891.45	71073.4
891.6	71073.4
891.75	71073.4
891.9	71073.4
892.05	85762.3
892.2	112885
892.35	113120
892.5	113120
892.65	113120
892.8	113120
892.95	113120
893.1	113120
893.25	113120
893.4	113120
893.55	113120
893.7	113120
893.85	113120
894	113120
894.15	113120
894.3	113120
894.45	113120
894.6	113120
894.75	113120
894.9	113120
895.05	113120
895.2	113120
895.35	113120
895.5	113120
895.65	113120
895.8	113120
895.95	113120
896.1	113120
896.25	113120
896.4	113120
896.55	113120
896.7	91752.7
896.85	71967.8
897	69165.7
897.15	69165.7
897.3	69165.7
897.45	69165.7
897.6	69165.7
897.75	69165.7
897.9	69165.7
898.05	69165.7
898.2	69165.7
898.35	69165.7
898.5	69165.7
898.65	69165.7
898.8	69165.7
898.95	69165.7
899.1	69165.7
899.25	69165.7
899.4	69165.7
899.55	69165.7
899.7	69165.7
899.85	69165.7
900	69165.7
900.15	69165.7
900.3	69165.7
900.45	69165.7
900.6	69165.7
900.75	69165.7
900.9	69165.7
901.05	69165.7
901.2	62857.2
901.35	31102.5
901.5	-5332.01
901.65	-5332.01
901.8	-5332.01
901.95	-5332.01
902.1	-5332.01
902.25	-5332.01
902.4	-5332.01
902.55	-5332.01
902.7	-5332.01
902.85	-5332.01
903	-5332.01
903.15	-5332.01
903.3	-5332.01
903.45	-5332.01
903.6	-5332.01
903.75	-5332.01
903.9	-5332.01
904.05	-5332.01
904.2	-5332.01
904.35	-5332.01
904.5	-5332.01
904.65	-5332.01
904.8	-5332.01
904.95	-5332.01
905.1	-5332.01
905.25	-5332.01
905.4	-5332.01
905.55	-5332.01
905.7	-5332.01
905.85	436.063
906	27495.1
906.15	30562.9
906.3	30562.9
906.45	30562.9
906.6	30562.9
906.75	30562.9
906.9	30562.9
907.05	30562.9
907.2	30562.9
907.35	30562.9
907.5	30562.9
907.65	30562.9
907.8	30562.9
907.95	30562.9
908.1	30562.9
908.25	30562.9
908.4	30562.9
908.55	30562.9
908.7	30562.9
908.85	30562.9
909	30562.9
909.15	30562.9
909.3	30562.9
909.45	30562.9
909.6	30562.9
909.75	30562.9
909.9	30562.9
910.05	30562.9
910.2	30562.9
910.35	33443.6
910.5	63248.5
910.65	99745.3
910.8	99745.3
910.95	99745.3
911.1	99745.3
911.25	99745.3
911.4	99745.3
911.55	99745.3
911.7	99745.3
911.85	99745.3
912	99745.3
912.15	99745.3
912.3	99745.3
912.45	99745.3
912.6	99745.3
912.75	99745.3
912.9	99745.3
913.05	99745.3
913.2	99745.3
913.35	99745.3
913.5	99745.3
913.65	99745.3
913.8	99745.3
913.95	99745.3
914.1	99745.3
914.25	99745.3
914.4	99745.3
914.55	99745.3
914.7	99745.3
914.85	99745.3
915	87208
915.15	-12399.8
915.3	-19110.4
915.45	-19110.4
915.6	-19110.4
915.75	-19110.4
915.9	-19110.4
916.05	-19110.4
916.2	-19110.4
916.35	-19110.4
916.5	-19110.4
916.65	-19110.4
916.8	-19110.4
916.95	-19110.4
917.1	-19110.4
917.25	-19110.4
917.4	-19110.4
917.55	-19110.4
917.7	-19110.4
917.85	-19110.4
918	-19110.4
918.15	-19110.4
918.3	-19110.4
918.45	-19110.4
918.6	-19110.4
918.75	-19110.4
918.9	-19110.4
919.05	-19110.4
919.2	-19110.4
919.35	-19110.4
919.5	-19110.4
919.65	-107955
919.8	-233922
919.95	-259461
920.1	-259461
920.25	-259461
920.4	-259461
920.55	-259461
920.7	-259461
920.85	-259461
921	-259461
921.15	-259461
921.3	-259461
921.45	-259461
921.6	-259461
921.75	-259461
921.9	-259461
922.05	-259461
922.2	-259461
922.35	-259461
922.5	-259461
922.65	-259461
922.8	-259461
922.95	-259461
923.1	-259461
923.25	-259461
923.4	-259461
923.55	-259461
923.7	-259461
923.85	-259520
924	-266728
924.15	-289562
924.3	-289740
924.45	-289740
924.6	-289740
924.75	-289740
924.9	-289740
925.05	-289740
925.2	-289740
925.35	-289740
925.5	-289740
925.65	-289740
925.8	-289740
925.95	-289740
926.1	-289740
926.25	-289740
926.4	-289740
926.55	-289740
926.7	-289740
926.85	-289740
927	-289740
927.15	-289740
927.3	-289740
927.45	-289740
927.6	-289740
927.75	-289740
927.9	-289740
928.05	-289740
928.2	-289174
928.35	-162649
928.5	-57110.9
928.65	-57110.9
928.8	-57110.9
928.95	-57110.9
929.1	-57110.9
929.25	-57110.9
929.4	-57110.9
929.55	-57110.9
929.7	-57110.9
929.85	-57110.9
930	-57110.9
930.15	-57110.9
930.3	-57110.9
930.45	-57110.9
930.6	-57110.9
930.75	-57110.9
930.9	-57110.9
931.05	-57110.9
931.2	-57110.9
931.35	-57110.9
931.5	-57110.9
931.65	-57110.9
931.8	-57110.9
931.95	-57110.9
932.1	-57110.9
932.25	-57110.9
932.4	-57110.9
932.55	-57110.9
932.7	-54417.5
932.85	-14936.6
933	109990
933.15	109990
933.3	109990
933.45	109990
933.6	109990
933.75	109990
933.9	109990
934.05	109990
934.2	109990
934.35	109990
934.5	109990
934.65	109990
934.8	109990
934.95	109990
935.1	109990
935.25	109990
935.4	109990
935.55	109990
935.7	109990
935.85	109990
936	109990
936.15	109990
936.3	109990
936.45	109990
936.6	109990
936.75	109990
936.9	109990
937.05	109990
937.2	109990
937.35	109479
937.5	81365.4
937.65	61599.5
937.8	61599.5
937.95	61599.5
938.1	61599.5
938.25	61599.5
938.4	61599.5
938.55	61599.5
938.7	61599.5
938.85	61599.5
939	61599.5
939.15	61599.5
939.3	61599.5
939.45	61599.5
939.6	61599.5
939.75	61599.5
939.9	61599.5
940.05	61599.5
940.2	61599.5
940.35	61599.5
940.5	61599.5
940.65	61599.5
940.8	61599.5
940.95	61599.5
941.1	61599.5
941.25	61599.5
941.4	61599.5
941.55	61599.5
941.7	61599.5
941.85	61576.8
942	58549.4
942.15	34042
942.3	34042
942.45	34042
942.6	34042
942.75	34042
942.9	34042
943.05	34042
943.2	34042
943.35	34042
943.5	34042
943.65	34042
943.8	34042
943.95	34042
944.1	34042
944.25	34042
944.4	34042
944.55	34042
944.7	34042
944.85	34042
945	34042
945.15	34042
945.3	34042
945.45	34042
945.6	34042
945.75	34042
945.9	34042
946.05	34042
946.2	34042
946.35	34042
946.5	51194
946.65	110634
946.8	140602
946.95	140602
947.1	140602
947.25	140602
947.4	140602
947.55	140602
947.7	140602
947.85	140602
948	140602
948.15	140602
948.3	140602
948.45	140602
948.6	140602
948.75	140602
948.9	140602
949.05	140602
949.2	140602
949.35	140602
949.5	140602
949.65	140602
949.8	140602
949.95	140602
950.1	140602
950.25	140602
950.4	140602
950.55	140602
950.7	140602
950.85	140602
951	140602
951.15	140660
951.3	141004
951.45	141008
951.6	141008
951.75	141008
951.9	141008
952.05	141008
952.2	141008
952.35	141008
952.5	141008
952.65	141008
952.8	141008
952.95	141008
953.1	141008
953.25	141008
953.4	141008
953.55	141008
953.7	141008
953.85	141008
954	141008
954.15	141008
954.3	141008
954.45	141008
954.6	141008
954.75	141008
954.9	141008
955.05	141008
955.2	141008
955.35	141008
955.5	141008
955.65	141008
955.8	67205.8
955.95	-26943.1
956.1	-57784.5
956.25	-57784.5
956.4	-57784.5
956.55	-57784.5
956.7	-57784.5
956.85	-57784.5
957	-57784.5
957.15	-57784.5
957.3	-57784.5
957.45	-57784.5
957.6	-57784.5
957.75	-57784.5
957.9	-57784.5
958.05	-57784.5
958.2	-57784.5
958.35	-57784.5
958.5	-57784.5
958.65	-57784.5
958.8	-57784.5
958.95	-57784.5
959.1	-57784.5
959.25	-57784.5
959.4	-57784.5
959.55	-57784.5
959.7	-57784.5
959.85	-57784.5
960	-57784.5
960.15	-59341.5
960.3	-81153.6
960.45	-150171
960.6	-150171
960.75	-150171
960.9	-150171
961.05	-150171
961.2	-150171
961.35	-150171
961.5	-150171
961.65	-150171
961.8	-150171
961.95	-150171
962.1	-150171
962.25	-150171
962.4	-150171
962.55	-150171
962.7	-150171
962.85	-150171
963	-150171
963.15	-150171
963.3	-150171
963.45	-150171
963.6	-150171
963.75	-150171
963.9	-150171
964.05	-150171
964.2	-150171
964.35	-150171
964.5	-150171
964.65	-93219.3
964.8	6659.81
964.95	37553.1
965.1	37553.1
965.25	37553.1
965.4	37553.1
965.55	37553.1
965.7	37553.1
965.85	37553.1
966	37553.1
966.15	37553.1
966.3	37553.1
966.45	37553.1
966.6	37553.1
966.75	37553.1
966.9	37553.1
967.05	37553.1
967.2	37553.1
967.35	37553.1
967.5	37553.1
967.65	37553.1
967.8	37553.1
967.95	37553.1
968.1	37553.1
968.25	37553.1
968.4	37553.1
968.55	37553.1
968.7	37553.1
968.85	37553.1
969	37553.1
969.15	60575.3
969.3	145342
969.45	202213
969.6	202213
969.75	202213
969.9	202213
970.05	202213
970.2	202213
970.35	202213
970.5	202213
970.65	202213
970.8	202213
970.95	202213
971.1	202213
971.25	202213
971.4	202213
971.55	202213
971.7	202213
971.85	202213
972	202213
972.15	202213
972.3	202213
972.45	202213
972.6	202213
972.75	202213
972.9	202213
973.05	202213
973.2	202213
973.35	202213
973.5	202213
973.65	202213
973.8	202213
973.95	144826
974.1	77402.7
974.25	60438.3
974.4	60438.3
974.55	60438.3
974.7	60438.3
974.85	60438.3
975	60438.3
975.15	60438.3
975.3	60438.3
975.45	60438.3
975.6	60438.3
975.75	60438.3
975.9	60438.3
976.05	60438.3
976.2	60438.3
976.35	60438.3
976.5	60438.3
976.65	60438.3
976.8	60438.3
976.95	60438.3
977.1	60438.3
977.25	60438.3
977.4	60438.3
977.55	60438.3
977.7	60438.3
977.85	60438.3
978	60438.3
978.15	60438.3
978.3	48030
978.45	-40265.7
978.6	-191477
978.75	-191477
978.9	-191477
979.05	-191477
979.2	-191477
979.35	-191477
979.5	-191477
979.65	-191477
979.8	-191477
979.95	-191477
980.1	-191477
980.25	-191477
980.4	-191477
980.55	-191477
980.7	-191477
980.85	-191477
981	-191477
981.15	-191477
981.3	-191477
981.45	-191477
981.6	-191477
981.75	-191477
981.9	-191477
982.05	-191477
982.2	-191477
982.35	-191477
982.5	-191477
982.65	-191477
982.8	-199016
982.95	-223318
983.1	-228440
983.25	-228440
983.4	-228440
983.55	-228440
983.7	-228440
983.85	-228440
984	-228440
984.15	-228440
984.3	-228440
984.45	-228440
984.6	-228440
984.75	-228440
984.9	-228440
985.05	-228440
985.2	-228440
985.35	-228440
985.5	-228440
985.65	-228440
985.8	-228440
985.95	-228440
986.1	-228440
986.25	-228440
986.4	-228440
986.55	-228440
986.7	-228440
986.85	-228440
987	-228440
987.15	-209625
987.3	-142730
987.45	-79070
987.6	-79070
987.75	-79070
987.9	-79070
988.05	-79070
988.2	-79070
988.35	-79070
988.5	-79070
988.65	-79070
988.8	-79070
988.95	-79070
989.1	-79070
989.25	-79070
989.4	-79070
989.55	-79070
989.7	-79070
989.85	-79070
990	-79070
990.15	-79070
990.3	-79070
990.45	-79070
990.6	-79070
990.75	-79070
990.9	-79070
991.05	-79070
991.2	-79070
991.35	-79070
991.5	-79070
991.65	-76965.2
991.8	27642.3
991.95	40792
992.1	40792
992.25	40792
992.4	40792
992.55	40792
992.7	40792
992.85	40792
993	40792
993.15	40792
993.3	40792
993.45	40792
993.6	40792
993.75	40792
993.9	40792
994.05	40792
994.2	40792
994.35	40792
994.5	40792
994.65	40792
994.8	40792
994.95	40792
995.1	40792
995.25	40792
995.4	40792
995.55	40792
995.7	40792
995.85	40792
996	40792
996.15	48011.4
996.3	72094.6
996.45	92774.3
996.6	92774.3
996.75	92774.3
996.9	92774.3
997.05	92774.3
997.2	92774.3
997.35	92774.3
997.5	92774.3
997.65	92774.3
997.8	92774.3
997.95	92774.3
998.1	92774.3
998.25	92774.3
998.4	92774.3
998.55	92774.3
998.7	92774.3
998.85	92774.3
999	92774.3
999.15	92774.3
999.3	92774.3
999.45	92774.3
999.6	92774.3
999.75	92774.3
999.9	92774.3
1000.05	92774.3
1000.2	92774.3
1000.35	92774.3
1000.5	92774.3
1000.65	92774.3
1000.8	92774.3
1000.95	131530
1001.1	135665
1001.25	135775
1001.4	135775
1001.55	135775
1001.7	135775
1001.85	135775
1002	135775
1002.15	135775
1002.3	135775
1002.45	135775
1002.6	135775
1002.75	135775
1002.9	135775
1003.05	135775
1003.2	135775
1003.35	135775
1003.5	135775
1003.65	135775
1003.8	135775
1003.95	135775
1004.1	135775
1004.25	135775
1004.4	135775
1004.55	135775
1004.7	135775
1004.85	135775
1005	135775
1005.15	135775
1005.3	135775
1005.45	134246
1005.6	127425
1005.75	120934
1005.9	120934
1006.05	120934
1006.2	120934
1006.35	120934
1006.5	120934
1006.65	120934
1006.8	120934
1006.95	120934
1007.1	120934
1007.25	120934
1007.4	120934
1007.55	120934
1007.7	120934
1007.85	120934
1008	120934
1008.15	120934
1008.3	120934
1008.45	120934
1008.6	120934
1008.75	120934
1008.9	120934
1009.05	120934
1009.2	120934
1009.35	120934
1009.5	120934
1009.65	120934
1009.8	120934
1009.95	120934
1010.1	103970
1010.25	21135.9
1010.4	17023.8
1010.55	17023.8
1010.7	17023.8
1010.85	17023.8
1011	17023.8
1011.15	17023.8
1011.3	17023.8
1011.45	17023.8
1011.6	17023.8
1011.75	17023.8
1011.9	17023.8
1012.05	17023.8
1012.2	17023.8
1012.35	17023.8
1012.5	17023.8
1012.65	17023.8
1012.8	17023.8
1012.95	17023.8
1013.1	17023.8
1013.25	17023.8
1013.4	17023.8
1013.55	17023.8
1013.7	17023.8
1013.85	17023.8
1014	17023.8
1014.15	17023.8
1014.3	17023.8
1014.45	17023.8
1014.6	17023.8
1014.75	-10683.5
1014.9	-47345.7
1015.05	-54149.8
1015.2	-54149.8
1015.35	-54149.8
1015.5	-54149.8
1015.65	-54149.8
1015.8	-54149.8
1015.95	-54149.8
1016.1	-54149.8
1016.25	-54149.8
1016.4	-54149.8
1016.55	-54149.8
1016.7	-54149.8
1016.85	-54149.8
1017	-54149.8
1017.15	-54149.8
1017.3	-54149.8
1017.45	-54149.8
1017.6	-54149.8
1017.75	-54149.8
1017.9	-54149.8
1018.05	-54149.8
1018.2	-54149.8
1018.35	-54149.8
1018.5	-54149.8
1018.65	-54149.8
1018.8	-54149.8
1018.95	-54149.8
1019.1	-54149.8
1019.25	-54149.8
1019.4	-26700.3
1019.55	-10870.1
1019.7	-10486.1
1019.85	-10486.1
1020	-10486.1
1020.15	-10486.1
1020.3	-10486.1
1020.45	-10486.1
1020.6	-10486.1
1020.75	-10486.1
1020.9	-10486.1
1021.05	-10486.1
1021.2	-10486.1
1021.35	-10486.1
1021.5	-10486.1
1021.65	-10486.1
1021.8	-10486.1
1021.95	-10486.1
1022.1	-10486.1
1022.25	-10486.1
1022.4	-10486.1
1022.55	-10486.1
1022.7	-10486.1
1022.85	-10486.1
1023	-10486.1
1023.15	-10486.1
1023.3	-10486.1
1023.45	-10486.1
1023.6	-10486.1
1023.75	-10486.1
1023.9	6576.7
1024.05	29936.7
1024.2	37165.7
1024.35	37165.7
1024.5	37165.7
1024.65	37165.7
1024.8	37165.7
1024.95	37165.7
1025.1	37165.7
1025.25	37165.7
1025.4	37165.7
1025.55	37165.7
1025.7	37165.7
1025.85	37165.7
1026	37165.7
1026.15	37165.7
1026.3	37165.7
1026.45	37165.7
1026.6	37165.7
1026.75	37165.7
1026.9	37165.7
1027.05	37165.7
1027.2	37165.7
1027.35	37165.7
1027.5	37165.7
1027.65	37165.7
1027.8	37165.7
1027.95	37165.7
1028.1	37165.7
1028.25	37165.7
1028.4	37062.4
1028.55	33209.8
1028.7	-14010
1028.85	-14010
1029	-14010
1029.15	-14010
1029.3	-14010
1029.45	-14010
1029.6	-14010
1029.75	-14010
1029.9	-14010
1030.05	-14010
1030.2	-14010
1030.35	-14010
1030.5	-14010
1030.65	-14010
1030.8	-14010
1030.95	-14010
1031.1	-14010
1031.25	-14010
1031.4	-14010
1031.55	-14010
1031.7	-14010
1031.85	-14010
1032	-14010
1032.15	-14010
1032.3	-14010
1032.45	-14010
1032.6	-14010
1032.75	-14010
1032.9	-14010
1033.05	-14010
1033.2	-14010
1033.35	-45666.4
1033.5	-76702.5
1033.65	-78574.2
1033.8	-78574.2
1033.95	-78574.2
1034.1	-78574.2
1034.25	-78574.2
1034.4	-78574.2
1034.55	-78574.2
1034.7	-78574.2
1034.85	-78574.2
1035	-78574.2
1035.15	-78574.2
1035.3	-78574.2
1035.45	-78574.2
1035.6	-78574.2
1035.75	-78574.2
1035.9	-78574.2
1036.05	-78574.2
1036.2	-78574.2
1036.35	-78574.2
1036.5	-78574.2
1036.65	-78574.2
1036.8	-78574.2
1036.95	-78574.2
1037.1	-78574.2
1037.25	-78574.2
1037.4	-78574.2
1037.55	-78574.2
1037.7	-78418.9
1037.85	-74794.8
1038	-50883.8
1038.15	-50883.8
1038.3	-50883.8
1038.45	-50883.8
1038.6	-50883.8
1038.75	-50883.8
1038.9	-50883.8
1039.05	-50883.8
1039.2	-50883.8
1039.35	-50883.8
1039.5	-50883.8
1039.65	-50883.8
1039.8	-50883.8
1039.95	-50883.8
1040.1	-50883.8
1040.25	-50883.8
1040.4	-50883.8
1040.55	-50883.8
1040.7	-50883.8
1040.85	-50883.8
1041	-50883.8
1041.15	-50883.8
1041.3	-50883.8
1041.45	-50883.8
1041.6	-50883.8
1041.75	-50883.8
1041.9	-50883.8
1042.05	-50883.8
1042.2	-50883.8
1042.35	-50883.8
1042.5	-43185.3
1042.65	-12972.6
1042.8	7259.52
1042.95	7259.52
1043.1	7259.52
1043.25	7259.52
1043.4	7259.52
1043.55	7259.52
1043.7	7259.52
1043.85	7259.52
1044	7259.52
1044.15	7259.52
1044.3	7259.52
1044.45	7259.52
1044.6	7259.52
1044.75	7259.52
1044.9	7259.52
1045.05	7259.52
1045.2	7259.52
1045.35	7259.52
1045.5	7259.52
1045.65	7259.52
1045.8	7259.52
1045.95	7259.52
1046.1	7259.52
1046.25	7259.52
1046.4	7259.52
1046.55	7259.52
1046.7	7259.52
1046.85	7259.52
1047	7259.52
1047.15	7259.52
1047.3	6519.71
1047.45	-8297.76
1047.6	-12655.4
1047.75	-12655.4
1047.9	-12655.4
1048.05	-12655.4
1048.2	-12655.4
1048.35	-12655.4
1048.5	-12655.4
1048.65	-12655.4
1048.8	-12655.4
1048.95	-12655.4
1049.1	-12655.4
1049.25	-12655.4
1049.4	-12655.4
1049.55	-12655.4
1049.7	-12655.4
1049.85	-12655.4
1050	-12655.4
1050.15	-12655.4
1050.3	-12655.4
1050.45	-12655.4
1050.6	-12655.4
1050.75	-12655.4
1050.9	-12655.4
1051.05	-12655.4
1051.2	-12655.4
1051.35	-12655.4
1051.5	-12655.4
1051.65	-12655.4
1051.8	-12655.4
1051.95	-12655.4
1052.1	-49851.1
1052.25	-83776.2
1052.4	-87053.8
1052.55	-87053.8
1052.7	-87053.8
1052.85	-87053.8
1053	-87053.8
1053.15	-87053.8
1053.3	-87053.8
1053.45	-87053.8
1053.6	-87053.8
1053.75	-87053.8
1053.9	-87053.8
1054.05	-87053.8
1054.2	-87053.8
1054.35	-87053.8
1054.5	-87053.8
1054.65	-87053.8
1054.8	-87053.8
1054.95	-87053.8
1055.1	-87053.8
1055.25	-87053.8
1055.4	-87053.8
1055.55	-87053.8
1055.7	-87053.8
1055.85	-87053.8
1056	-87053.8
1056.15	-87053.8
1056.3	-87053.8
1056.45	-87053.8
1056.6	-87195.6
1056.75	-90730.5
1056.9	-119585
1057.05	-119585
1057.2	-119585
1057.35	-119585
1057.5	-119585
1057.65	-119585
1057.8	-119585
1057.95	-119585
1058.1	-119585
1058.25	-119585
1058.4	-119585
1058.55	-119585
1058.7	-119585
1058.85	-119585
1059	-119585
1059.15	-119585
1059.3	-119585
1059.45	-119585
1059.6	-119585
1059.75	-119585
1059.9	-119585
1060.05	-119585
1060.2	-119585
1060.35	-119585
1060.5	-119585
1060.65	-119585
1060.8	-119585
1060.95	-119585
1061.1	-119585
1061.25	-119585
1061.4	-119585
1061.55	-96191.8
1061.7	-77601.6
1061.85	-77387.3
1062	-77387.3
1062.15	-77387.3
1062.3	-77387.3
1062.45	-77387.3
1062.6	-77387.3
1062.75	-77387.3
1062.9	-77387.3
1063.05	-77387.3
1063.2	-77387.3
1063.35	-77387.3
1063.5	-77387.3
1063.65	-77387.3
1063.8	-77387.3
1063.95	-77387.3
1064.1	-77387.3
1064.25	-77387.3
1064.4	-77387.3
1064.55	-77387.3
1064.7	-77387.3
1064.85	-77387.3
1065	-77387.3
1065.15	-77387.3
1065.3	-77387.3
1065.45	-77387.3
1065.6	-77387.3
1065.75	-77387.3
1065.9	-77387.3
1066.05	-76447.6
1066.2	-60679
1066.35	12722.8
1066.5	12722.8
1066.65	12722.8
1066.8	12722.8
1066.95	12722.8
1067.1	12722.8
1067.25	12722.8
1067.4	12722.8
1067.55	12722.8
1067.7	12722.8
1067.85	12722.8
1068	12722.8
1068.15	12722.8
1068.3	12722.8
1068.45	12722.8
1068.6	12722.8
1068.75	12722.8
1068.9	12722.8
1069.05	12722.8
1069.2	12722.8
1069.35	12722.8
1069.5	12722.8
1069.65	12722.8
1069.8	12722.8
1069.95	12722.8
1070.1	12722.8
1070.25	12722.8
1070.4	12722.8
1070.55	12722.8
1070.7	12722.8
1070.85	12722.8
1071	47117.5
1071.15	94577.1
1071.3	111923
1071.45	111923
1071.6	111923
1071.75	111923
1071.9	111923
1072.05	111923
1072.2	111923
1072.35	111923
1072.5	111923
1072.65	111923
1072.8	111923
1072.95	111923
1073.1	111923
1073.25	111923
1073.4	111923
1073.55	111923
1073.7	111923
1073.85	111923
1074	111923
1074.15	111923
1074.3	111923
1074.45	111923
1074.6	111923
1074.75	111923
1074.9	111923
1075.05	111923
1075.2	111923
1075.35	111923
1075.5	111923
1075.65	111923
1075.8	114844
1075.95	163961
1076.1	164204
1076.25	164204
1076.4	164204
1076.55	164204
1076.7	164204
1076.85	164204
1077	164204
1077.15	164204
1077.3	164204
1077.45	164204
1077.6	164204
1077.75	164204
1077.9	164204
1078.05	164204
1078.2	164204
1078.35	164204
1078.5	164204
1078.65	164204
1078.8	164204
1078.95	164204
1079.1	164204
1079.25	164204
1079.4	164204
1079.55	164204
1079.7	164204
1079.85	164204
1080	164204
1080.15	164204
1080.3	164204
1080.45	164204
1080.6	160979
1080.75	145560
1080.9	134752
1081.05	134752
1081.2	134752
1081.35	134752
1081.5	134752
1081.65	134752
1081.8	134752
1081.95	134752
1082.1	134752
1082.25	134752
1082.4	134752
1082.55	134752
1082.7	134752
1082.85	134752
1083	134752
1083.15	134752
1083.3	134752
1083.45	134752
1083.6	134752
1083.75	134752
1083.9	134752
1084.05	134752
1084.2	134752
1084.35	134752
1084.5	134752
1084.65	134752
1084.8	134752
1084.95	134752
1085.1	134752
1085.25	134752
1085.4	133855
1085.55	114748
1085.7	75247.3
1085.85	75247.3
1086	75247.3
1086.15	75247.3
1086.3	75247.3
1086.45	75247.3
1086.6	75247.3
1086.75	75247.3
1086.9	75247.3
1087.05	75247.3
1087.2	75247.3
1087.35	75247.3
1087.5	75247.3
1087.65	75247.3
1087.8	75247.3
1087.95	75247.3
1088.1	75247.3
1088.25	75247.3
1088.4	75247.3
1088.55	75247.3
1088.7	75247.3
1088.85	75247.3
1089	75247.3
1089.15	75247.3
1089.3	75247.3
1089.45	75247.3
1089.6	75247.3
1089.75	75247.3
1089.9	75247.3
1090.05	75247.3
1090.2	69810.2
1090.35	60660.5
1090.5	56555.9
1090.65	56555.9
1090.8	56555.9
1090.95	56555.9
1091.1	56555.9
1091.25	56555.9
1091.4	56555.9
1091.55	56555.9
1091.7	56555.9
1091.85	56555.9
1092	56555.9
1092.15	56555.9
1092.3	56555.9
1092.45	56555.9
1092.6	56555.9
1092.75	56555.9
1092.9	56555.9
1093.05	56555.9
1093.2	56555.9
1093.35	56555.9
1093.5	56555.9
1093.65	56555.9
1093.8	56555.9
1093.95	56555.9
1094.1	56555.9
1094.25	56555.9
1094.4	56555.9
1094.55	56555.9
1094.7	56555.9
1094.85	55956.2
1095	45955.9
1095.15	44274.6
1095.3	44274.6
1095.45	44274.6
1095.6	44274.6
1095.75	44274.6
1095.9	44274.6
1096.05	44274.6
1096.2	44274.6
1096.35	44274.6
1096.5	44274.6
1096.65	44274.6
1096.8	44274.6
1096.95	44274.6
1097.1	44274.6
1097.25	44274.6
1097.4	44274.6
1097.55	44274.6
1097.7	44274.6
1097.85	44274.6
1098	44274.6
1098.15	44274.6
1098.3	44274.6
1098.45	44274.6
1098.6	44274.6
1098.75	44274.6
1098.9	44274.6
1099.05	44274.6
1099.2	44274.6
1099.35	44274.6
1099.5	43463
1099.65	-4241.29
1099.8	-41284.2
1099.95	-41284.2
1100.1	-41284.2
1100.25	-41284.2
1100.4	-41284.2
1100.55	-41284.2
1100.7	-41284.2
1100.85	-41284.2
1101	-41284.2
1101.15	-41284.2
1101.3	-41284.2
1101.45	-41284.2
1101.6	-41284.2
1101.75	-41284.2
1101.9	-41284.2
1102.05	-41284.2
1102.2	-41284.2
1102.35	-41284.2
1102.5	-41284.2
1102.65	-41284.2
1102.8	-41284.2
1102.95	-41284.2
1103.1	-41284.2
1103.25	-41284.2
1103.4	-41284.2
1103.55	-41284.2
1103.7	-41284.2
1103.85	-41284.2
1104	-46993.7
1104.15	-105189
1104.3	-156405
1104.45	-156405
1104.6	-156405
1104.75	-156405
1104.9	-156405
1105.05	-156405
1105.2	-156405
1105.35	-156405
1105.5	-156405
1105.65	-156405
1105.8	-156405
1105.95	-156405
1106.1	-156405
1106.25	-156405
1106.4	-156405
1106.55	-156405
1106.7	-156405
1106.85	-156405
1107	-156405
1107.15	-156405
1107.3	-156405
1107.45	-156405
1107.6	-156405
1107.75	-156405
1107.9	-156405
1108.05	-156405
1108.2	-156405
1108.35	-156405
1108.5	-158835
1108.65	-163677
1108.8	-165817
1108.95	-165817
1109.1	-165817
1109.25	-165817
1109.4	-165817
1109.55	-165817
1109.7	-165817
1109.85	-165817
1110	-165817
1110.15	-165817
1110.3	-165817
1110.45	-165817
1110.6	-165817
1110.75	-165817
1110.9	-165817
1111.05	-165817
1111.2	-165817
1111.35	-165817
1111.5	-165817
1111.65	-165817
1111.8	-165817
1111.95	-165817
1112.1	-165817
1112.25	-165817
1112.4	-165817
1112.55	-165817
1112.7	-165817
1112.85	-151415
1113	-75468.3
1113.15	-48497.8
1113.3	-48497.8
1113.45	-48497.8
1113.6	-48497.8
1113.75	-48497.8
1113.9	-48497.8
1114.05	-48497.8
1114.2	-48497.8
1114.35	-48497.8
1114.5	-48497.8
1114.65	-48497.8
1114.8	-48497.8
1114.95	-48497.8
1115.1	-48497.8
1115.25	-48497.8
1115.4	-48497.8
1115.55	-48497.8
1115.7	-48497.8
1115.85	-48497.8
1116	-48497.8
1116.15	-48497.8
1116.3	-48497.8
1116.45	-48497.8
1116.6	-48497.8
1116.75	-48497.8
1116.9	-48497.8
1117.05	-48497.8
1117.2	-48497.8
1117.35	-6266.74
1117.5	45421.1
1117.65	60825.4
1117.8	60825.4
1117.95	60825.4
1118.1	60825.4
1118.25	60825.4
1118.4	60825.4
1118.55	60825.4
1118.7	60825.4
1118.85	60825.4
1119	60825.4
1119.15	60825.4
1119.3	60825.4
1119.45	60825.4
1119.6	60825.4
1119.75	60825.4
1119.9	60825.4
1120.05	60825.4
1120.2	60825.4
1120.35	60825.4
1120.5	60825.4
1120.65	60825.4
1120.8	60825.4
1120.95	60825.4
1121.1	60825.4
1121.25	60825.4
1121.4	60825.4
1121.55	60825.4
1121.7	60369.5
1121.85	58340.2
1122	56295.2
1122.15	56295.2
1122.3	56295.2
1122.45	56295.2
1122.6	56295.2
1122.75	56295.2
1122.9	56295.2
1123.05	56295.2
1123.2	56295.2
1123.35	56295.2
1123.5	56295.2
1123.65	56295.2
1123.8	56295.2
1123.95	56295.2
1124.1	56295.2
1124.25	56295.2
1124.4	56295.2
1124.55	56295.2
1124.7	56295.2
1124.85	56295.2
1125	56295.2
1125.15	56295.2
1125.3	56295.2
1125.45	56295.2
1125.6	56295.2
1125.75	56295.2
1125.9	56295.2
1126.05	56295.2
1126.2	37771.6
1126.35	-7364.74
1126.5	-19878.4
1126.65	-19878.4
1126.8	-19878.4
1126.95	-19878.4
1127.1	-19878.4
1127.25	-19878.4
1127.4	-19878.4
1127.55	-19878.4
1127.7	-19878.4
1127.85	-19878.4
1128	-19878.4
1128.15	-19878.4
1128.3	-19878.4
1128.45	-19878.4
1128.6	-19878.4
1128.75	-19878.4
1128.9	-19878.4
1129.05	-19878.4
1129.2	-19878.4
1129.35	-19878.4
1129.5	-19878.4
1129.65	-19878.4
1129.8	-19878.4
1129.95	-19878.4
1130.1	-19878.4
1130.25	-19878.4
1130.4	-19878.4
1130.55	-27506.3
1130.7	-50044.8
1130.85	-63716.4
1131	-63716.4
1131.15	-63716.4
1131.3	-63716.4
1131.45	-63716.4
1131.6	-63716.4
1131.75	-63716.4
1131.9	-63716.4
1132.05	-63716.4
1132.2	-63716.4
1132.35	-63716.4
1132.5	-63716.4
1132.65	-63716.4
1132.8	-63716.4
1132.95	-63716.4
1133.1	-63716.4
1133.25	-63716.4
1133.4	-63716.4
1133.55	-63716.4
1133.7	-63716.4
1133.85	-63716.4
1134	-63716.4
1134.15	-63716.4
1134.3	-63716.4
1134.45	-63716.4
1134.6	-63716.4
1134.75	-63716.4
1134.9	-54727.5
1135.05	-37216.1
1135.2	-34327.1
1135.35	-34327.1
1135.5	-34327.1
1135.65	-34327.1
1135.8	-34327.1
1135.95	-34327.1
1136.1	-34327.1
1136.25	-34327.1
1136.4	-34327.1
1136.55	-34327.1
1136.7	-34327.1
1136.85	-34327.1
1137	-34327.1
1137.15	-34327.1
1137.3	-34327.1
1137.45	-34327.1
1137.6	-34327.1
1137.75	-34327.1
1137.9	-34327.1
1138.05	-34327.1
1138.2	-34327.1
1138.35	-34327.1
1138.5	-34327.1
1138.65	-34327.1
1138.8	-34327.1
1138.95	-34327.1
1139.1	-34327.1
1139.25	-15120.8
1139.4	18715.8
1139.55	26903.5
1139.7	26903.5
1139.85	26903.5
1140	26903.5
1140.15	26903.5
1140.3	26903.5
1140.45	26903.5
1140.6	26903.5
1140.75	26903.5
1140.9	26903.5
1141.05	26903.5
1141.2	26903.5
1141.35	26903.5
1141.5	26903.5
1141.65	26903.5
1141.8	26903.5
1141.95	26903.5
1142.1	26903.5
1142.25	26903.5
1142.4	26903.5
1142.55	26903.5
1142.7	26903.5
1142.85	26903.5
1143	26903.5
1143.15	26903.5
1143.3	26903.5
1143.45	26903.5
1143.6	35299.1
1143.75	53734.9
1143.9	54957.1
1144.05	54957.1
1144.2	54957.1
1144.35	54957.1
1144.5	54957.1
1144.65	54957.1
1144.8	54957.1
1144.95	54957.1
1145.1	54957.1
1145.25	54957.1
1145.4	54957.1
1145.55	54957.1
1145.7	54957.1
1145.85	54957.1
1146	54957.1
1146.15	54957.1
1146.3	54957.1
1146.45	54957.1
1146.6	54957.1
1146.75	54957.1
1146.9	54957.1
1147.05	54957.1
1147.2	54957.1
1147.35	54957.1
1147.5	54957.1
1147.65	54957.1
1147.8	54957.1
1147.95	51825.6
1148.1	39253.6
1148.25	28893.1
1148.4	28893.1
1148.55	28893.1
1148.7	28893.1
1148.85	28893.1
1149	28893.1
1149.15	28893.1
1149.3	28893.1
1149.45	28893.1
1149.6	28893.1
1149.75	28893.1
1149.9	28893.1
1150.05	28893.1
1150.2	28893.1
1150.35	28893.1
1150.5	28893.1
1150.65	28893.1
1150.8	28893.1
1150.95	28893.1
1151.1	28893.1
1151.25	28893.1
1151.4	28893.1
1151.55	28893.1
1151.7	28893.1
1151.85	28893.1
1152	28893.1
1152.15	28893.1
1152.3	28165.1
1152.45	-997.419
1152.6	-8984.02
1152.75	-8984.02
1152.9	-8984.02
1153.05	-8984.02
1153.2	-8984.02
1153.35	-8984.02
1153.5	-8984.02
1153.65	-8984.02
1153.8	-8984.02
1153.95	-8984.02
1154.1	-8984.02
1154.25	-8984.02
1154.4	-8984.02
1154.55	-8984.02
1154.7	-8984.02
1154.85	-8984.02
1155	-8984.02
1155.15	-8984.02
1155.3	-8984.02
1155.45	-8984.02
1155.6	-8984.02
1155.75	-8984.02
1155.9	-8984.02
1156.05	-8984.02
1156.2	-8984.02
1156.35	-8984.02
1156.5	-8984.02
1156.65	-8984.02
1156.8	-11252.3
1156.95	-13080.8
1157.1	-13123.3
1157.25	-13123.3
1157.4	-13123.3
1157.55	-13123.3
1157.7	-13123.3
1157.85	-13123.3
1158	-13123.3
1158.15	-13123.3
1158.3	-13123.3
1158.45	-13123.3
1158.6	-13123.3
1158.75	-13123.3
1158.9	-13123.3
1159.05	-13123.3
1159.2	-13123.3
1159.35	-13123.3
1159.5	-13123.3
1159.65	-13123.3
1159.8	-13123.3
1159.95	-13123.3
1160.1	-13123.3
1160.25	-13123.3
1160.4	-13123.3
1160.55	-13123.3
1160.7	-13123.3
1160.85	-13123.3
1161	-12135.6
1161.15	-3672.54
1161.3	2551.29
1161.45	2551.29
1161.6	2551.29
1161.75	2551.29
1161.9	2551.29
1162.05	2551.29
1162.2	2551.29
1162.35	2551.29
1162.5	2551.29
1162.65	2551.29
1162.8	2551.29
1162.95	2551.29
1163.1	2551.29
1163.25	2551.29
1163.4	2551.29
1163.55	2551.29
1163.7	2551.29
1163.85	2551.29
1164	2551.29
1164.15	2551.29
1164.3	2551.29
1164.45	2551.29
1164.6	2551.29
1164.75	2551.29
1164.9	2551.29
1165.05	2551.29
1165.2	2551.29
1165.35	2551.29
1165.5	619.683
1165.65	-1363.34
1165.8	-1907.09
1165.95	-1907.09
1166.1	-1907.09
1166.25	-1907.09
1166.4	-1907.09
1166.55	-1907.09
1166.7	-1907.09
1166.85	-1907.09
1167	-1907.09
1167.15	-1907.09
1167.3	-1907.09
1167.45	-1907.09
1167.6	-1907.09
1167.75	-1907.09
1167.9	-1907.09
1168.05	-1907.09
1168.2	-1907.09
1168.35	-1907.09
1168.5	-1907.09
1168.65	-1907.09
1168.8	-1907.09
1168.95	-1907.09
1169.1	-1907.09
1169.25	-1907.09
1169.4	-1907.09
1169.55	-1907.09
1169.7	-2334.25
1169.85	-7404.68
1170	-22251.7
1170.15	-22251.7
1170.3	-22251.7
1170.45	-22251.7
1170.6	-22251.7
1170.75	-22251.7
1170.9	-22251.7
1171.05	-22251.7
1171.2	-22251.7
1171.35	-22251.7
1171.5	-22251.7
1171.65	-22251.7
1171.8	-22251.7
1171.95	-22251.7
1172.1	-22251.7
1172.25	-22251.7
1172.4	-22251.7
1172.55	-22251.7
1172.7	-22251.7
1172.85	-22251.7
1173	-22251.7
1173.15	-22251.7
1173.3	-22251.7
1173.45	-22251.7
1173.6	-22251.7
1173.75	-22251.7
1173.9	-22251.7
1174.05	-22251.7
1174.2	-22297.9
1174.35	-22393.1
1174.5	-22423.5
1174.65	-22423.5
1174.8	-22423.5
1174.95	-22423.5
1175.1	-22423.5
1175.25	-22423.5
1175.4	-22423.5
1175.55	-22423.5
1175.7	-22423.5
1175.85	-22423.5
1176	-22423.5
1176.15	-22423.5
1176.3	-22423.5
1176.45	-22423.5
1176.6	-22423.5
1176.75	-22423.5
1176.9	-22423.5
1177.05	-22423.5
1177.2	-22423.5
1177.35	-22423.5
1177.5	-22423.5
1177.65	-22423.5
1177.8	-22423.5
1177.95	-22423.5
1178.1	-22423.5
1178.25	-22423.5
1178.4	-22423.5
1178.55	-15507.6
1178.7	4065.27
1178.85	7305.41
1179	7305.41
1179.15	7305.41
1179.3	7305.41
1179.45	7305.41
1179.6	7305.41
1179.75	7305.41
1179.9	7305.41
1180.05	7305.41
1180.2	7305.41
1180.35	7305.41
1180.5	7305.41
1180.65	7305.41
1180.8	7305.41
1180.95	7305.41
1181.1	7305.41
1181.25	7305.41
1181.4	7305.41
1181.55	7305.41
1181.7	7305.41
1181.85	7305.41
1182	7305.41
1182.15	7305.41
1182.3	7305.41
1182.45	7305.41
1182.6	7305.41
1182.75	7305.41
1182.9	13050.4
1183.05	40881.6
1183.2	47204.9
1183.35	47204.9
1183.5	47204.9
1183.65	47204.9
1183.8	47204.9
1183.95	47204.9
1184.1	47204.9
1184.25	47204.9
1184.4	47204.9
1184.55	47204.9
1184.7	47204.9
1184.85	47204.9
1185	47204.9
1185.15	47204.9
1185.3	47204.9
1185.45	47204.9
1185.6	47204.9
1185.75	47204.9
1185.9	47204.9
1186.05	47204.9
1186.2	47204.9
1186.35	47204.9
1186.5	47204.9
1186.65	47204.9
1186.8	47204.9
1186.95	47204.9
1187.1	47204.9
1187.25	51011
1187.4	64855.2
1187.55	78337.8
1187.7	78337.8
1187.85	78337.8
1188	78337.8
1188.15	78337.8
1188.3	78337.8
1188.45	78337.8
1188.6	78337.8
1188.75	78337.8
1188.9	78337.8
1189.05	78337.8
1189.2	78337.8
1189.35	78337.8
1189.5	78337.8
1189.65	78337.8
1189.8	78337.8
1189.95	78337.8
1190.1	78337.8
1190.25	78337.8
1190.4	78337.8
1190.55	78337.8
1190.7	78337.8
1190.85	78337.8
1191	78337.8
1191.15	78337.8
1191.3	78337.8
1191.45	78337.8
1191.6	78337.8
1191.75	84592.8
1191.9	88914.3
1192.05	89403.4
1192.2	89403.4
1192.35	89403.4
1192.5	89403.4
1192.65	89403.4
1192.8	89403.4
1192.95	89403.4
1193.1	89403.4
1193.25	89403.4
1193.4	89403.4
1193.55	89403.4
1193.7	89403.4
1193.85	89403.4
1194	89403.4
1194.15	89403.4
1194.3	89403.4
1194.45	89403.4
1194.6	89403.4
1194.75	89403.4
1194.9	89403.4
1195.05	89403.4
1195.2	89403.4
1195.35	89403.4
1195.5	89403.4
1195.65	89403.4
1195.8	89403.4
1195.95	89025.4
1196.1	82920.4
1196.25	75531.1
1196.4	75531.1
1196.55	75531.1
1196.7	75531.1
1196.85	75531.1
1197	75531.1
1197.15	75531.1
1197.3	75531.1
1197.45	75531.1
1197.6	75531.1
1197.75	75531.1
1197.9	75531.1
1198.05	75531.1
1198.2	75531.1
1198.35	75531.1
1198.5	75531.1
1198.65	75531.1
1198.8	75531.1
1198.95	75531.1
1199.1	75531.1
1199.25	75531.1
1199.4	75531.1
1199.55	75531.1
1199.7	75531.1
1199.85	75531.1
1200	75531.1
1200.15	75531.1
1200.3	75531.1
1200.45	63693
1200.6	34188.2
1200.75	33227.4
1200.9	33227.4
1201.05	33227.4
1201.2	33227.4
1201.35	33227.4
1201.5	33227.4
1201.65	33227.4
1201.8	33227.4
1201.95	33227.4
1202.1	33227.4
1202.25	33227.4
1202.4	33227.4
1202.55	33227.4
1202.7	33227.4
1202.85	33227.4
1203	33227.4
1203.15	33227.4
1203.3	33227.4
1203.45	33227.4
1203.6	33227.4
1203.75	33227.4
1203.9	33227.4
1204.05	33227.4
1204.2	33227.4
1204.35	33227.4
1204.5	33227.4
1204.65	15159.1
1204.8	-25751.6
1204.95	-49095.6
1205.1	-49095.6
1205.25	-49095.6
1205.4	-49095.6
1205.55	-49095.6
1205.7	-49095.6
1205.85	-49095.6
1206	-49095.6
1206.15	-49095.6
1206.3	-49095.6
1206.45	-49095.6
1206.6	-49095.6
1206.75	-49095.6
1206.9	-49095.6
1207.05	-49095.6
1207.2	-49095.6
1207.35	-49095.6
1207.5	-49095.6
1207.65	-49095.6
1207.8	-49095.6
1207.95	-49095.6
1208.1	-49095.6
1208.25	-49095.6
1208.4	-49095.6
1208.55	-49095.6
1208.7	-49095.6
1208.85	-57095.6
1209	-139991
1209.15	-148980
1209.3	-148980
1209.45	-148980
1209.6	-148980
1209.75	-148980
1209.9	-148980
1210.05	-148980
1210.2	-148980
1210.35	-148980
1210.5	-148980
1210.65	-148980
1210.8	-148980
1210.95	-148980
1211.1	-148980
1211.25	-148980
1211.4	-148980
1211.55	-148980
1211.7	-148980
1211.85	-148980
1212	-148980
1212.15	-148980
1212.3	-148980
1212.45	-148980
1212.6	-148980
1212.75	-148980
1212.9	-148980
1213.05	-158016
1213.2	-164761
1213.35	-165885
1213.5	-165885
1213.65	-165885
1213.8	-165885
1213.95	-165885
1214.1	-165885
1214.25	-165885
1214.4	-165885
1214.55	-165885
1214.7	-165885
1214.85	-165885
1215	-165885
1215.15	-165885
1215.3	-165885
1215.45	-165885
1215.6	-165885
1215.75	-165885
1215.9	-165885
1216.05	-165885
1216.2	-165885
1216.35	-165885
1216.5	-165885
1216.65	-165885
1216.8	-165885
1216.95	-165279
1217.1	-135405
1217.25	-38844
1217.4	-38844
1217.55	-38844
1217.7	-38844
1217.85	-38844
1218	-38844
1218.15	-38844
1218.3	-38844
1218.45	-38844
1218.6	-38844
1218.75	-38844
1218.9	-38844
1219.05	-38844
1219.2	-38844
1219.35	-38844
1219.5	-38844
1219.65	-38844
1219.8	-38844
1219.95	-38844
1220.1	-38844
1220.25	-38844
1220.4	-38844
1220.55	-38844
1220.7	-38844
1220.85	-38844
1221	-38844
1221.15	7673.61
1221.3	76154
1221.45	91188.2
1221.6	91188.2
1221.75	91188.2
1221.9	91188.2
1222.05	91188.2
1222.2	91188.2
1222.35	91188.2
1222.5	91188.2
1222.65	91188.2
1222.8	91188.2
1222.95	91188.2
1223.1	91188.2
1223.25	91188.2
1223.4	91188.2
1223.55	91188.2
1223.7	91188.2
1223.85	91188.2
1224	91188.2
1224.15	91188.2
1224.3	91188.2
1224.45	91188.2
1224.6	91188.2
1224.75	91188.2
1224.9	91188.2
1225.05	91188.2
1225.2	91188.2
1225.35	80311.7
1225.5	49617.7
1225.65	27930
1225.8	27930
1225.95	27930
1226.1	27930
1226.25	27930
1226.4	27930
1226.55	27930
1226.7	27930
1226.85	27930
1227	27930
1227.15	27930
1227.3	27930
1227.45	27930
1227.6	27930
1227.75	27930
1227.9	27930
1228.05	27930
1228.2	27930
1228.35	27930
1228.5	27930
1228.65	27930
1228.8	27930
1228.95	27930
1229.1	27930
1229.25	27930
1229.4	27930
1229.55	-88311.6
1229.7	-145404
1229.85	-150040
1230	-150040
1230.15	-150040
1230.3	-150040
1230.45	-150040
1230.6	-150040
1230.75	-150040
1230.9	-150040
1231.05	-150040
1231.2	-150040
1231.35	-150040
1231.5	-150040
1231.65	-150040
1231.8	-150040
1231.95	-150040
1232.1	-150040
1232.25	-150040
1232.4	-150040
1232.55	-150040
1232.7	-150040
1232.85	-150040
1233	-150040
1233.15	-150040
1233.3	-150040
1233.45	-152917
1233.6	-157263
1233.75	-158899
1233.9	-158899
1234.05	-158899
1234.2	-158899
1234.35	-158899
1234.5	-158899
1234.65	-158899
1234.8	-158899
1234.95	-158899
1235.1	-158899
1235.25	-158899
1235.4	-158899
1235.55	-158899
1235.7	-158899
1235.85	-158899
1236	-158899
1236.15	-158899
1236.3	-158899
1236.45	-158899
1236.6	-158899
1236.75	-158899
1236.9	-158899
1237.05	-158899
1237.2	-158899
1237.35	-148111
1237.5	-40193.2
1237.65	43904
1237.8	43904
1237.95	43904
1238.1	43904
1238.25	43904
1238.4	43904
1238.55	43904
1238.7	43904
1238.85	43904
1239	43904
1239.15	43904
1239.3	43904
1239.45	43904
1239.6	43904
1239.75	43904
1239.9	43904
1240.05	43904
1240.2	43904
1240.35	43904
1240.5	43904
1240.65	43904
1240.8	43904
1240.95	43904
1241.1	43904
1241.25	43904
1241.4	54632.6
1241.55	142542
1241.7	184482
1241.85	184482
1242	184482
1242.15	184482
1242.3	184482
1242.45	184482
1242.6	184482
1242.75	184482
1242.9	184482
1243.05	184482
1243.2	184482
1243.35	184482
1243.5	184482
1243.65	184482
1243.8	184482
1243.95	184482
1244.1	184482
1244.25	184482
1244.4	184482
1244.55	184482
1244.7	184482
1244.85	184482
1245	184482
1245.15	184482
1245.3	184482
1245.45	184482
1245.6	174099
1245.75	135341
1245.9	118900
1246.05	118900
1246.2	118900
1246.35	118900
1246.5	118900
1246.65	118900
1246.8	118900
1246.95	118900
1247.1	118900
1247.25	118900
1247.4	118900
1247.55	118900
1247.7	118900
1247.85	118900
1248	118900
1248.15	118900
1248.3	118900
1248.45	118900
1248.6	118900
1248.75	118900
1248.9	118900
1249.05	118900
1249.2	118900
1249.35	118900
1249.5	118900
1249.65	115377
1249.8	43803.7
1249.95	26090.8
1250.1	26090.8
1250.25	26090.8
1250.4	26090.8
1250.55	26090.8
1250.7	26090.8
1250.85	26090.8
1251	26090.8
1251.15	26090.8
1251.3	26090.8
1251.45	26090.8
1251.6	26090.8
1251.75	26090.8
1251.9	26090.8
1252.05	26090.8
1252.2	26090.8
1252.35	26090.8
1252.5	26090.8
1252.65	26090.8
1252.8	26090.8
1252.95	26090.8
1253.1	26090.8
1253.25	26090.8
1253.4	26090.8
1253.55	26090.8
1253.7	31371
1253.85	45572.7
1254	55393.8
1254.15	55393.8
1254.3	55393.8
1254.45	55393.8
1254.6	55393.8
1254.75	55393.8
1254.9	55393.8
1255.05	55393.8
1255.2	55393.8
1255.35	55393.8
1255.5	55393.8
1255.65	55393.8
1255.8	55393.8
1255.95	55393.8
1256.1	55393.8
1256.25	55393.8
1256.4	55393.8
1256.55	55393.8
1256.7	55393.8
1256.85	55393.8
1257	55393.8
1257.15	55393.8
1257.3	55393.8
1257.45	55393.8
1257.6	55393.8
1257.75	87032.3
1257.9	107461
1258.05	108439
1258.2	108439
1258.35	108439
1258.5	108439
1258.65	108439
1258.8	108439
1258.95	108439
1259.1	108439
1259.25	108439
1259.4	108439
1259.55	108439
1259.7	108439
1259.85	108439
1260	108439
1260.15	108439
1260.3	108439
1260.45	108439
1260.6	108439
1260.75	108439
1260.9	108439
1261.05	108439
1261.2	108439
1261.35	108439
1261.5	108439
1261.65	108439
1261.8	97204.6
1261.95	83279.3
1262.1	79406.1
1262.25	79406.1
1262.4	79406.1
1262.55	79406.1
1262.7	79406.1
1262.85	79406.1
1263	79406.1
1263.15	79406.1
1263.3	79406.1
1263.45	79406.1
1263.6	79406.1
1263.75	79406.1
1263.9	79406.1
1264.05	79406.1
1264.2	79406.1
1264.35	79406.1
1264.5	79406.1
1264.65	79406.1
1264.8	79406.1
1264.95	79406.1
1265.1	79406.1
1265.25	79406.1
1265.4	79406.1
1265.55	79406.1
1265.7	77473.6
1265.85	58305.1
1266	15215.3
1266.15	15215.3
1266.3	15215.3
1266.45	15215.3
1266.6	15215.3
1266.75	15215.3
1266.9	15215.3
1267.05	15215.3
1267.2	15215.3
1267.35	15215.3
1267.5	15215.3
1267.65	15215.3
1267.8	15215.3
1267.95	15215.3
1268.1	15215.3
1268.25	15215.3
1268.4	15215.3
1268.55	15215.3
1268.7	15215.3
1268.85	15215.3
1269	15215.3
1269.15	15215.3
1269.3	15215.3
1269.45	15215.3
1269.6	15215.3
1269.75	-21285.1
1269.9	-41495.9
1270.05	-43711.2
1270.2	-43711.2
1270.35	-43711.2
1270.5	-43711.2
1270.65	-43711.2
1270.8	-43711.2
1270.95	-43711.2
1271.1	-43711.2
1271.25	-43711.2
1271.4	-43711.2
1271.55	-43711.2
1271.7	-43711.2
1271.85	-43711.2
1272	-43711.2
1272.15	-43711.2
1272.3	-43711.2
1272.45	-43711.2
1272.6	-43711.2
1272.75	-43711.2
1272.9	-43711.2
1273.05	-43711.2
1273.2	-43711.2
1273.35	-43711.2
1273.5	-43958.8
1273.65	-66676.7
1273.8	-121432
1273.95	-121432
1274.1	-121432
1274.25	-121432
1274.4	-121432
1274.55	-121432
1274.7	-121432
1274.85	-121432
1275	-121432
1275.15	-121432
1275.3	-121432
1275.45	-121432
1275.6	-121432
1275.75	-121432
1275.9	-121432
1276.05	-121432
1276.2	-121432
1276.35	-121432
1276.5	-121432
1276.65	-121432
1276.8	-121432
1276.95	-121432
1277.1	-121432
1277.25	-121432
1277.4	-121432
1277.55	-144642
1277.7	-176151
1277.85	-180339
1278	-180339
1278.15	-180339
1278.3	-180339
1278.45	-180339
1278.6	-180339
1278.75	-180339
1278.9	-180339
1279.05	-180339
1279.2	-180339
1279.35	-180339
1279.5	-180339
1279.65	-180339
1279.8	-180339
1279.95	-180339
1280.1	-180339
1280.25	-180339
1280.4	-180339
1280.55	-180339
1280.7	-180339
1280.85	-180339
1281	-180339
1281.15	-180339
1281.3	-173219
1281.45	-164430
1281.6	-162952
1281.75	-162952
1281.9	-162952
1282.05	-162952
1282.2	-162952
1282.35	-162952
1282.5	-162952
1282.65	-162952
1282.8	-162952
1282.95	-162952
1283.1	-162952
1283.25	-162952
1283.4	-162952
1283.55	-162952
1283.7	-162952
1283.85	-162952
1284	-162952
1284.15	-162952
1284.3	-162952
1284.45	-162952
1284.6	-162952
1284.75	-162952
1284.9	-162952
1285.05	-158733
1285.2	-115150
1285.35	-112185
1285.5	-112185
1285.65	-112185
1285.8	-112185
1285.95	-112185
1286.1	-112185
1286.25	-112185
1286.4	-112185
1286.55	-112185
1286.7	-112185
1286.85	-112185
1287	-112185
1287.15	-112185
1287.3	-112185
1287.45	-112185
1287.6	-112185
1287.75	-112185
1287.9	-112185
1288.05	-112185
1288.2	-112185
1288.35	-112185
1288.5	-112185
1288.65	-112185
1288.8	-112185
1288.95	-85548.3
1289.1	-64015.5
1289.25	-59410.3
1289.4	-59410.3
1289.55	-59410.3
1289.7	-59410.3
1289.85	-59410.3
1290	-59410.3
1290.15	-59410.3
1290.3	-59410.3
1290.45	-59410.3
1290.6	-59410.3
1290.75	-59410.3
1290.9	-59410.3
1291.05	-59410.3
1291.2	-59410.3
1291.35	-59410.3
1291.5	-59410.3
1291.65	-59410.3
1291.8	-59410.3
1291.95	-59410.3
1292.1	-59410.3
1292.25	-59410.3
1292.4	-59410.3
1292.55	-59410.3
1292.7	-59410.3
1292.85	-36466.8
1293	34699.8
1293.15	63504.4
1293.3	63504.4
1293.45	63504.4
1293.6	63504.4
1293.75	63504.4
1293.9	63504.4
1294.05	63504.4
1294.2	63504.4
1294.35	63504.4
1294.5	63504.4
1294.65	63504.4
1294.8	63504.4
1294.95	63504.4
1295.1	63504.4
1295.25	63504.4
1295.4	63504.4
1295.55	63504.4
1295.7	63504.4
1295.85	63504.4
1296	63504.4
1296.15	63504.4
1296.3	63504.4
1296.45	63504.4
1296.6	63504.4
1296.75	116176
1296.9	208106
1297.05	222283
1297.2	222283
1297.35	222283
1297.5	222283
1297.65	222283
1297.8	222283
1297.95	222283
1298.1	222283
1298.25	222283
1298.4	222283
1298.55	222283
1298.7	222283
1298.85	222283
1299	222283
1299.15	222283
1299.3	222283
1299.45	222283
1299.6	222283
1299.75	222283
1299.9	222283
1300.05	222283
1300.2	222283
1300.35	222283
1300.5	222283
1300.65	222283
1300.8	223470
1300.95	225989
1301.1	227356
1301.25	227356
1301.4	227356
1301.55	227356
1301.7	227356
1301.85	227356
1302	227356
1302.15	227356
1302.3	227356
1302.45	227356
1302.6	227356
1302.75	227356
1302.9	227356
1303.05	227356
1303.2	227356
1303.35	227356
1303.5	227356
1303.65	227356
1303.8	227356
1303.95	227356
1304.1	227356
1304.25	227356
1304.4	227356
1304.55	227356
1304.7	227356
1304.85	227220
1305	212134
1305.15	64987.3
1305.3	63780.2
1305.45	63780.2
1305.6	63780.2
1305.75	63780.2
1305.9	63780.2
1306.05	63780.2
1306.2	63780.2
1306.35	63780.2
1306.5	63780.2
1306.65	63780.2
1306.8	63780.2
1306.95	63780.2
1307.1	63780.2
1307.25	63780.2
1307.4	63780.2
1307.55	63780.2
1307.7	63780.2
1307.85	63780.2
1308	63780.2
1308.15	63780.2
1308.3	63780.2
1308.45	63780.2
1308.6	63780.2
1308.75	63780.2
1308.9	54705.8
1309.05	1936.22
1309.2	-32300.1
1309.35	-32300.1
1309.5	-32300.1
1309.65	-32300.1
1309.8	-32300.1
1309.95	-32300.1
1310.1	-32300.1
1310.25	-32300.1
1310.4	-32300.1
1310.55	-32300.1
1310.7	-32300.1
1310.85	-32300.1
1311	-32300.1
1311.15	-32300.1
1311.3	-32300.1
1311.45	-32300.1
1311.6	-32300.1
1311.75	-32300.1
1311.9	-32300.1
1312.05	-32300.1
1312.2	-32300.1
1312.35	-32300.1
1312.5	-32300.1
1312.65	-32300.1
1312.8	-31503.7
1312.95	-22212
1313.1	7006.27
1313.25	7006.27
1313.4	7006.27
1313.55	7006.27
1313.7	7006.27
1313.85	7006.27
1314	7006.27
1314.15	7006.27
1314.3	7006.27
1314.45	7006.27
1314.6	7006.27
1314.75	7006.27
1314.9	7006.27
1315.05	7006.27
1315.2	7006.27
1315.35	7006.27
1315.5	7006.27
1315.65	7006.27
1315.8	7006.27
1315.95	7006.27
1316.1	7006.27
1316.25	7006.27
1316.4	7006.27
1316.55	7006.27
1316.7	7006.27
1316.85	7006.27
1317	-17061
1317.15	-26944.9
1317.3	-27547.8
1317.45	-27547.8
1317.6	-27547.8
1317.75	-27547.8
1317.9	-27547.8
1318.05	-27547.8
1318.2	-27547.8
1318.35	-27547.8
1318.5	-27547.8
1318.65	-27547.8
1318.8	-27547.8
1318.95	-27547.8
1319.1	-27547.8
1319.25	-27547.8
1319.4	-27547.8
1319.55	-27547.8
1319.7	-27547.8
1319.85	-27547.8
1320	-27547.8
1320.15	-27547.8
1320.3	-27547.8
1320.45	-27547.8
1320.6	-27547.8
1320.75	-27547.8
1320.9	-35660.9
1321.05	-83846.1
1321.2	-153286
1321.35	-153286
1321.5	-153286
1321.65	-153286
1321.8	-153286
1321.95	-153286
1322.1	-153286
1322.25	-153286
1322.4	-153286
1322.55	-153286
1322.7	-153286
1322.85	-153286
1323	-153286
1323.15	-153286
1323.3	-153286
1323.45	-153286
1323.6	-153286
1323.75	-153286
1323.9	-153286
1324.05	-153286
1324.2	-153286
1324.35	-153286
1324.5	-153286
1324.65	-153286
1324.8	-153286
1324.95	-142866
1325.1	-99740.1
1325.25	-94885.8
1325.4	-94885.8
1325.55	-94885.8
1325.7	-94885.8
1325.85	-94885.8
1326	-94885.8
1326.15	-94885.8
1326.3	-94885.8
1326.45	-94885.8
1326.6	-94885.8
1326.75	-94885.8
1326.9	-94885.8
1327.05	-94885.8
1327.2	-94885.8
1327.35	-94885.8
1327.5	-94885.8
1327.65	-94885.8
1327.8	-94885.8
1327.95	-94885.8
1328.1	-94885.8
1328.25	-94885.8
1328.4	-94885.8
1328.55	-94885.8
1328.7	-94885.8
1328.85	-64511.4
1329	57808.1
1329.15	156749
1329.3	156749
1329.45	156749
1329.6	156749
1329.75	156749
1329.9	156749
1330.05	156749
1330.2	156749
1330.35	156749
1330.5	156749
1330.65	156749
1330.8	156749
1330.95	156749
1331.1	156749
1331.25	156749
1331.4	156749
1331.55	156749
1331.7	156749
1331.85	156749
1332	156749
1332.15	156749
1332.3	156749
1332.45	156749
1332.6	156749
1332.75	156749
1332.9	156749
1333.05	156981
1333.2	163303
1333.35	214663
1333.5	214663
1333.65	214663
1333.8	214663
1333.95	214663
1334.1	214663
1334.25	214663
1334.4	214663
1334.55	214663
1334.7	214663
1334.85	214663
1335	214663
1335.15	214663
1335.3	214663
1335.45	214663
1335.6	214663
1335.75	214663
1335.9	214663
1336.05	214663
1336.2	214663
1336.35	214663
1336.5	214663
1336.65	214663
1336.8	214663
1336.95	214663
1337.1	214663
1337.25	214663
1337.4	214663
1337.55	104470
1337.7	-14436
1337.85	-45130.4
1338	-45130.4
1338.15	-45130.4
1338.3	-45130.4
1338.45	-45130.4
1338.6	-45130.4
1338.75	-45130.4
1338.9	-45130.4
1339.05	-45130.4
1339.2	-45130.4
1339.35	-45130.4
1339.5	-45130.4
1339.65	-45130.4
1339.8	-45130.4
1339.95	-45130.4
1340.1	-45130.4
1340.25	-45130.4
1340.4	-45130.4
1340.55	-45130.4
1340.7	-45130.4
1340.85	-45130.4
1341	-45130.4
1341.15	-45130.4
1341.3	-45130.4
1341.45	-45130.4
1341.6	-68126.5
1341.75	-201213
1341.9	-237752
1342.05	-237752
1342.2	-237752
1342.35	-237752
1342.5	-237752
1342.65	-237752
1342.8	-237752
1342.95	-237752
1343.1	-237752
1343.25	-237752
1343.4	-237752
1343.55	-237752
1343.7	-237752
1343.85	-237752
1344	-237752
1344.15	-237752
1344.3	-237752
1344.45	-237752
1344.6	-237752
1344.75	-237752
1344.9	-237752
1345.05	-237752
1345.2	-237752
1345.35	-237752
1345.5	-237752
1345.65	-208717
1345.8	-150832
1345.95	-132372
1346.1	-132372
1346.25	-132372
1346.4	-132372
1346.55	-132372
1346.7	-132372
1346.85	-132372
1347	-132372
1347.15	-132372
1347.3	-132372
1347.45	-132372
1347.6	-132372
1347.75	-132372
1347.9	-132372
1348.05	-132372
1348.2	-132372
1348.35	-132372
1348.5	-132372
1348.65	-132372
1348.8	-132372
1348.95	-132372
1349.1	-132372
1349.25	-132372
1349.4	-132372
1349.55	-132372
1349.7	-132372
1349.85	-100980
1350	-20328.2
1350.15	-11323.8
1350.3	-11323.8
1350.45	-11323.8
1350.6	-11323.8
1350.75	-11323.8
1350.9	-11323.8
1351.05	-11323.8
1351.2	-11323.8
1351.35	-11323.8
1351.5	-11323.8
1351.65	-11323.8
1351.8	-11323.8
1351.95	-11323.8
1352.1	-11323.8
1352.25	-11323.8
1352.4	-11323.8
1352.55	-11323.8
1352.7	-11323.8
1352.85	-11323.8
1353	-11323.8
1353.15	-11323.8
1353.3	-11323.8
1353.45	-11323.8
1353.6	-11323.8
1353.75	-11323.8
1353.9	-11323.8
1354.05	-35012.6
1354.2	-84478.5
1354.35	-93107.9
1354.5	-93107.9
1354.65	-93107.9
1354.8	-93107.9
1354.95	-93107.9
1355.1	-93107.9
1355.25	-93107.9
1355.4	-93107.9
1355.55	-93107.9
1355.7	-93107.9
1355.85	-93107.9
1356	-93107.9
1356.15	-93107.9
1356.3	-93107.9
1356.45	-93107.9
1356.6	-93107.9
1356.75	-93107.9
1356.9	-93107.9
1357.05	-93107.9
1357.2	-93107.9
1357.35	-93107.9
1357.5	-93107.9
1357.65	-93107.9
1357.8	-93107.9
1357.95	-93107.9
1358.1	-93821.4
1358.25	-113233
1358.4	-139998
1358.55	-139998
1358.7	-139998
1358.85	-139998
1359	-139998
1359.15	-139998
1359.3	-139998
1359.45	-139998
1359.6	-139998
1359.75	-139998
1359.9	-139998
1360.05	-139998
1360.2	-139998
1360.35	-139998
1360.5	-139998
1360.65	-139998
1360.8	-139998
1360.95	-139998
1361.1	-139998
1361.25	-139998
1361.4	-139998
1361.55	-139998
1361.7	-139998
1361.85	-139998
1362	-139998
1362.15	-139998
1362.3	-139998
1362.45	14256.1
1362.6	43969.4
1362.75	45048.4
1362.9	45048.4
1363.05	45048.4
1363.2	45048.4
1363.35	45048.4
1363.5	45048.4
1363.65	45048.4
1363.8	45048.4
1363.95	45048.4
1364.1	45048.4
1364.25	45048.4
1364.4	45048.4
1364.55	45048.4
1364.7	45048.4
1364.85	45048.4
1365	45048.4
1365.15	45048.4
1365.3	45048.4
1365.45	45048.4
1365.6	45048.4
1365.75	45048.4
1365.9	45048.4
1366.05	45048.4
1366.2	45048.4
1366.35	45048.4
1366.5	45048.4
1366.65	111726
1366.8	199031
1366.95	225383
1367.1	225383
1367.25	225383
1367.4	225383
1367.55	225383
1367.7	225383
1367.85	225383
1368	225383
1368.15	225383
1368.3	225383
1368.45	225383
1368.6	225383
1368.75	225383
1368.9	225383
1369.05	225383
1369.2	225383
1369.35	225383
1369.5	225383
1369.65	225383
1369.8	225383
1369.95	225383
1370.1	225383
1370.25	225383
1370.4	225383
1370.55	225383
1370.7	225383
1370.85	223882
1371	204249
1371.15	167885
1371.3	167885
1371.45	167885
1371.6	167885
1371.75	167885
1371.9	167885
1372.05	167885
1372.2	167885
1372.35	167885
1372.5	167885
1372.65	167885
1372.8	167885
1372.95	167885
1373.1	167885
1373.25	167885
1373.4	167885
1373.55	167885
1373.7	167885
1373.85	167885
1374	167885
1374.15	167885
1374.3	167885
1374.45	167885
1374.6	167885
1374.75	167885
1374.9	167885
1375.05	167885
1375.2	167885
1375.35	97138.7
1375.5	49748.9
1375.65	47463.8
1375.8	47463.8
1375.95	47463.8
1376.1	47463.8
1376.25	47463.8
1376.4	47463.8
1376.55	47463.8
1376.7	47463.8
1376.85	47463.8
1377	47463.8
1377.15	47463.8
1377.3	47463.8
1377.45	47463.8
1377.6	47463.8
1377.75	47463.8
1377.9	47463.8
1378.05	47463.8
1378.2	47463.8
1378.35	47463.8
1378.5	47463.8
1378.65	47463.8
1378.8	47463.8
1378.95	47463.8
1379.1	47463.8
1379.25	47463.8
1379.4	50798.1
1379.55	69668
1379.7	89772.3
1379.85	89772.3
1380	89772.3
1380.15	89772.3
1380.3	89772.3
1380.45	89772.3
1380.6	89772.3
1380.75	89772.3
1380.9	89772.3
1381.05	89772.3
1381.2	89772.3
1381.35	89772.3
1381.5	89772.3
1381.65	89772.3
1381.8	89772.3
1381.95	89772.3
1382.1	89772.3
1382.25	89772.3
1382.4	89772.3
1382.55	89772.3
1382.7	89772.3
1382.85	89772.3
1383	89772.3
1383.15	89772.3
1383.3	89772.3
1383.45	89772.3
1383.6	95929.4
1383.75	151946
1383.9	171297
1384.05	171297
1384.2	171297
1384.35	171297
1384.5	171297
1384.65	171297
1384.8	171297
1384.95	171297
1385.1	171297
1385.25	171297
1385.4	171297
1385.55	171297
1385.7	171297
1385.85	171297
1386	171297
1386.15	171297
1386.3	171297
1386.45	171297
1386.6	171297
1386.75	171297
1386.9	171297
1387.05	171297
1387.2	171297
1387.35	171297
1387.5	171297
1387.65	171297
1387.8	164048
1387.95	129906
1388.1	86481.9
1388.25	86481.9
1388.4	86481.9
1388.55	86481.9
1388.7	86481.9
1388.85	86481.9
1389	86481.9
1389.15	86481.9
1389.3	86481.9
1389.45	86481.9
1389.6	86481.9
1389.75	86481.9
1389.9	86481.9
1390.05	86481.9
1390.2	86481.9
1390.35	86481.9
1390.5	86481.9
1390.65	86481.9
1390.8	86481.9
1390.95	86481.9
1391.1	86481.9
1391.25	86481.9
1391.4	86481.9
1391.55	86481.9
1391.7	86481.9
1391.85	86481.9
1392	18342.2
1392.15	-69179
1392.3	-82236.1
1392.45	-82236.1
1392.6	-82236.1
1392.75	-82236.1
1392.9	-82236.1
1393.05	-82236.1
1393.2	-82236.1
1393.35	-82236.1
1393.5	-82236.1
1393.65	-82236.1
1393.8	-82236.1
1393.95	-82236.1
1394.1	-82236.1
1394.25	-82236.1
1394.4	-82236.1
1394.55	-82236.1
1394.7	-82236.1
1394.85	-82236.1
1395	-82236.1
1395.15	-82236.1
1395.3	-82236.1
1395.45	-82236.1
1395.6	-82236.1
1395.75	-82236.1
1395.9	-99287.6
1396.05	-131734
1396.2	-147175
1396.35	-147175
1396.5	-147175
1396.65	-147175
1396.8	-147175
1396.95	-147175
1397.1	-147175
1397.25	-147175
1397.4	-147175
1397.55	-147175
1397.7	-147175
1397.85	-147175
1398	-147175
1398.15	-147175
1398.3	-147175
1398.45	-147175
1398.6	-147175
1398.75	-147175
1398.9	-147175
1399.05	-147175
1399.2	-147175
1399.35	-147175
1399.5	-147175
1399.65	-147108
1399.8	-145404
1399.95	-131747
1400.1	-131747
1400.25	-131747
1400.4	-131747
1400.55	-131747
1400.7	-131747
1400.85	-131747
1401	-131747
1401.15	-131747
1401.3	-131747
1401.45	-131747
1401.6	-131747
1401.75	-131747
1401.9	-131747
1402.05	-131747
1402.2	-131747
1402.35	-131747
1402.5	-131747
1402.65	-131747
1402.8	-131747
1402.95	-131747
1403.1	-131747
1403.25	-131747
1403.4	-131747
1403.55	-131747
1403.7	-143708
1403.85	-151043
1404	-151413
1404.15	-151413
1404.3	-151413
1404.45	-151413
1404.6	-151413
1404.75	-151413
1404.9	-151413
1405.05	-151413
1405.2	-151413
1405.35	-151413
1405.5	-151413
1405.65	-151413
1405.8	-151413
1405.95	-151413
1406.1	-151413
1406.25	-151413
1406.4	-151413
1406.55	-151413
1406.7	-151413
1406.85	-151413
1407	-151413
1407.15	-151413
1407.3	-152188
1407.45	-158061
1407.6	-169490
1407.75	-169490
1407.9	-169490
1408.05	-169490
1408.2	-169490
1408.35	-169490
1408.5	-169490
1408.65	-169490
1408.8	-169490
1408.95	-169490
1409.1	-169490
1409.25	-169490
1409.4	-169490
1409.55	-169490
1409.7	-169490
1409.85	-169490
1410	-169490
1410.15	-169490
1410.3	-169490
1410.45	-169490
1410.6	-169490
1410.75	-169490
1410.9	-169490
1411.05	-169490
1411.2	-136943
1411.35	-103614
1411.5	-98329.2
1411.65	-98329.2
1411.8	-98329.2
1411.95	-98329.2
1412.1	-98329.2
1412.25	-98329.2
1412.4	-98329.2
1412.55	-98329.2
1412.7	-98329.2
1412.85	-98329.2
1413	-98329.2
1413.15	-98329.2
1413.3	-98329.2
1413.45	-98329.2
1413.6	-98329.2
1413.75	-98329.2
1413.9	-98329.2
1414.05	-98329.2
1414.2	-98329.2
1414.35	-98329.2
1414.5	-98329.2
1414.65	-98329.2
1414.8	-98329.2
1414.95	-56582.5
1415.1	-1910.05
1415.25	4401.95
1415.4	4401.95
1415.55	4401.95
1415.7	4401.95
1415.85	4401.95
1416	4401.95
1416.15	4401.95
1416.3	4401.95
1416.45	4401.95
1416.6	4401.95
1416.75	4401.95
1416.9	4401.95
1417.05	4401.95
1417.2	4401.95
1417.35	4401.95
1417.5	4401.95
1417.65	4401.95
1417.8	4401.95
1417.95	4401.95
1418.1	4401.95
1418.25	4401.95
1418.4	4401.95
1418.55	4524.46
1418.7	7945.82
1418.85	39082.9
1419	39082.9
1419.15	39082.9
1419.3	39082.9
1419.45	39082.9
1419.6	39082.9
1419.75	39082.9
1419.9	39082.9
1420.05	39082.9
1420.2	39082.9
1420.35	39082.9
1420.5	39082.9
1420.65	39082.9
1420.8	39082.9
1420.95	39082.9
1421.1	39082.9
1421.25	39082.9
1421.4	39082.9
1421.55	39082.9
1421.7	39082.9
1421.85	39082.9
1422	39082.9
1422.15	39082.9
1422.3	39082.9
1422.45	39082.9
1422.6	43435.2
1422.75	46038
1422.9	46221.9
1423.05	46221.9
1423.2	46221.9
1423.35	46221.9
1423.5	46221.9
1423.65	46221.9
1423.8	46221.9
1423.95	46221.9
1424.1	46221.9
1424.25	46221.9
1424.4	46221.9
1424.55	46221.9
1424.7	46221.9
1424.85	46221.9
1425	46221.9
1425.15	46221.9
1425.3	46221.9
1425.45	46221.9
1425.6	46221.9
1425.75	46221.9
1425.9	46221.9
1426.05	46221.9
1426.2	46221.9
1426.35	61653.8
1426.5	107527
1426.65	110994
1426.8	110994
1426.95	110994
1427.1	110994
1427.25	110994
1427.4	110994
1427.55	110994
1427.7	110994
1427.85	110994
1428	110994
1428.15	110994
1428.3	110994
1428.45	110994
1428.6	110994
1428.75	110994
1428.9	110994
1429.05	110994
1429.2	110994
1429.35	110994
1429.5	110994
1429.65	110994
1429.8	110994
1429.95	110994
1430.1	128956
1430.25	175971
1430.4	183397
1430.55	183397
1430.7	183397
1430.85	183397
1431	183397
1431.15	183397
1431.3	183397
1431.45	183397
1431.6	183397
1431.75	183397
1431.9	183397
1432.05	183397
1432.2	183397
1432.35	183397
1432.5	183397
1432.65	183397
1432.8	183397
1432.95	183397
1433.1	183397
1433.25	183397
1433.4	183397
1433.55	183397
1433.7	183397
1433.85	183397
1434	181199
1434.15	169099
1434.3	157046
1434.45	157046
1434.6	157046
1434.75	157046
1434.9	157046
1435.05	157046
1435.2	157046
1435.35	157046
1435.5	157046
1435.65	157046
1435.8	157046
1435.95	157046
1436.1	157046
1436.25	157046
1436.4	157046
1436.55	157046
1436.7	157046
1436.85	157046
1437	157046
1437.15	157046
1437.3	157046
1437.45	157046
1437.6	157046
1437.75	155070
1437.9	119181
1438.05	54165.5
1438.2	54165.5
1438.35	54165.5
1438.5	54165.5
1438.65	54165.5
1438.8	54165.5
1438.95	54165.5
1439.1	54165.5
1439.25	54165.5
1439.4	54165.5
1439.55	54165.5
1439.7	54165.5
1439.85	54165.5
1440	54165.5
1440.15	54165.5
1440.3	54165.5
1440.45	54165.5
1440.6	54165.5
1440.75	54165.5
1440.9	54165.5
1441.05	54165.5
1441.2	54165.5
1441.35	54165.5
1441.5	54165.5
1441.65	32731.2
1441.8	-3479.71
1441.95	-17498.9
1442.1	-17498.9
1442.25	-17498.9
1442.4	-17498.9
1442.55	-17498.9
1442.7	-17498.9
1442.85	-17498.9
1443	-17498.9
1443.15	-17498.9
1443.3	-17498.9
1443.45	-17498.9
1443.6	-17498.9
1443.75	-17498.9
1443.9	-17498.9
1444.05	-17498.9
1444.2	-17498.9
1444.35	-17498.9
1444.5	-17498.9
1444.65	-17498.9
1444.8	-17498.9
1444.95	-17498.9
1445.1	-17498.9
1445.25	-17498.9
1445.4	-21901.8
1445.55	-35101.2
1445.7	-36443.5
1445.85	-36443.5
1446	-36443.5
1446.15	-36443.5
1446.3	-36443.5
1446.45	-36443.5
1446.6	-36443.5
1446.75	-36443.5
1446.9	-36443.5
1447.05	-36443.5
1447.2	-36443.5
1447.35	-36443.5
1447.5	-36443.5
1447.65	-36443.5
1447.8	-36443.5
1447.95	-36443.5
1448.1	-36443.5
1448.25	-36443.5
1448.4	-36443.5
1448.55	-36443.5
1448.7	-36443.5
1448.85	-36443.5
1449	-36443.5
1449.15	-43021.4
1449.3	-56781.5
1449.45	-58934.6
1449.6	-58934.6
1449.75	-58934.6
1449.9	-58934.6
1450.05	-58934.6
1450.2	-58934.6
1450.35	-58934.6
1450.5	-58934.6
1450.65	-58934.6
1450.8	-58934.6
1450.95	-58934.6
1451.1	-58934.6
1451.25	-58934.6
1451.4	-58934.6
1451.55	-58934.6
1451.7	-58934.6
1451.85	-58934.6
1452	-58934.6
1452.15	-58934.6
1452.3	-58934.6
1452.45	-58934.6
1452.6	-58934.6
1452.75	-61016.2
1452.9	-73709.1
1453.05	-85474.1
1453.2	-85474.1
1453.35	-85474.1
1453.5	-85474.1
1453.65	-85474.1
1453.8	-85474.1
1453.95	-85474.1
1454.1	-85474.1
1454.25	-85474.1
1454.4	-85474.1
1454.55	-85474.1
1454.7	-85474.1
1454.85	-85474.1
1455	-85474.1
1455.15	-85474.1
1455.3	-85474.1
1455.45	-85474.1
1455.6	-85474.1
1455.75	-85474.1
1455.9	-85474.1
1456.05	-85474.1
1456.2	-85474.1
1456.35	-85474.1
1456.5	-84262.8
1456.65	-71605.1
1456.8	-70381.5
1456.95	-70381.5
1457.1	-70381.5
1457.25	-70381.5
1457.4	-70381.5
1457.55	-70381.5
1457.7	-70381.5
1457.85	-70381.5
1458	-70381.5
1458.15	-70381.5
1458.3	-70381.5
1458.45	-70381.5
1458.6	-70381.5
1458.75	-70381.5
1458.9	-70381.5
1459.05	-70381.5
1459.2	-70381.5
1459.35	-70381.5
1459.5	-70381.5
1459.65	-70381.5
1459.8	-70381.5
1459.95	-70381.5
1460.1	-70381.5
1460.25	-57226.4
1460.4	-39736.8
1460.55	-34318.2
1460.7	-34318.2
1460.85	-34318.2
1461	-34318.2
1461.15	-34318.2
1461.3	-34318.2
1461.45	-34318.2
1461.6	-34318.2
1461.75	-34318.2
1461.9	-34318.2
1462.05	-34318.2
1462.2	-34318.2
1462.35	-34318.2
1462.5	-34318.2
1462.65	-34318.2
1462.8	-34318.2
1462.95	-34318.2
1463.1	-34318.2
1463.25	-34318.2
1463.4	-34318.2
1463.55	-34318.2
1463.7	-34318.2
1463.85	-34437.2
1464	-36206.6
1464.15	-39671.4
1464.3	-39671.4
1464.45	-39671.4
1464.6	-39671.4
1464.75	-39671.4
1464.9	-39671.4
1465.05	-39671.4
1465.2	-39671.4
1465.35	-39671.4
1465.5	-39671.4
1465.65	-39671.4
1465.8	-39671.4
1465.95	-39671.4
1466.1	-39671.4
1466.25	-39671.4
1466.4	-39671.4
1466.55	-39671.4
1466.7	-39671.4
1466.85	-39671.4
1467	-39671.4
1467.15	-39671.4
1467.3	-39671.4
1467.45	-39671.4
1467.6	-39671.4
1467.75	-61935
1467.9	-67954.7
1468.05	-68389
1468.2	-68389
1468.35	-68389
1468.5	-68389
1468.65	-68389
1468.8	-68389
1468.95	-68389
1469.1	-68389
1469.25	-68389
1469.4	-68389
1469.55	-68389
1469.7	-68389
1469.85	-68389
1470	-68389
1470.15	-68389
1470.3	-68389
1470.45	-68389
1470.6	-68389
1470.75	-68389
1470.9	-68389
1471.05	-68389
1471.2	-68389
1471.35	-60889.5
1471.5	-46905.7
1471.65	-39995.2
1471.8	-39995.2
1471.95	-39995.2
1472.1	-39995.2
1472.25	-39995.2
1472.4	-39995.2
1472.55	-39995.2
1472.7	-39995.2
1472.85	-39995.2
1473	-39995.2
1473.15	-39995.2
1473.3	-39995.2
1473.45	-39995.2
1473.6	-39995.2
1473.75	-39995.2
1473.9	-39995.2
1474.05	-39995.2
1474.2	-39995.2
1474.35	-39995.2
1474.5	-39995.2
1474.65	-39995.2
1474.8	-39995.2
1474.95	-37318.9
1475.1	-12400.3
1475.25	50791.5
1475.4	50791.5
1475.55	50791.5
1475.7	50791.5
1475.85	50791.5
1476	50791.5
1476.15	50791.5
1476.3	50791.5
1476.45	50791.5
1476.6	50791.5
1476.75	50791.5
1476.9	50791.5
1477.05	50791.5
1477.2	50791.5
1477.35	50791.5
1477.5	50791.5
1477.65	50791.5
1477.8	50791.5
1477.95	50791.5
1478.1	50791.5
1478.25	50791.5
1478.4	50791.5
1478.55	50791.5
1478.7	50791.5
1478.85	81633.6
1479	108884
1479.15	115017
1479.3	115017
1479.45	115017
1479.6	115017
1479.75	115017
1479.9	115017
1480.05	115017
1480.2	115017
1480.35	115017
1480.5	115017
1480.65	115017
1480.8	115017
1480.95	115017
1481.1	115017
1481.25	115017
1481.4	115017
1481.55	115017
1481.7	115017
1481.85	115017
1482	115017
1482.15	115017
1482.3	115017
1482.45	115017
1482.6	110452
1482.75	100016
1482.9	95981.7
1483.05	95981.7
1483.2	95981.7
1483.35	95981.7
1483.5	95981.7
1483.65	95981.7
1483.8	95981.7
1483.95	95981.7
1484.1	95981.7
1484.25	95981.7
1484.4	95981.7
1484.55	95981.7
1484.7	95981.7
1484.85	95981.7
1485	95981.7
1485.15	95981.7
1485.3	95981.7
1485.45	95981.7
1485.6	95981.7
1485.75	95981.7
1485.9	95981.7
1486.05	95981.7
1486.2	95981.7
1486.35	92649.8
1486.5	36805.1
1486.65	34042.1
1486.8	34042.1
1486.95	34042.1
1487.1	34042.1
1487.25	34042.1
1487.4	34042.1
1487.55	34042.1
1487.7	34042.1
1487.85	34042.1
1488	34042.1
1488.15	34042.1
1488.3	34042.1
1488.45	34042.1
1488.6	34042.1
1488.75	34042.1
1488.9	34042.1
1489.05	34042.1
1489.2	34042.1
1489.35	34042.1
1489.5	34042.1
1489.65	34042.1
1489.8	34042.1
1489.95	34042.1
1490.1	21684.6
1490.25	1378.26
1490.4	-7493.57
1490.55	-7493.57
1490.7	-7493.57
1490.85	-7493.57
1491	-7493.57
1491.15	-7493.57
1491.3	-7493.57
1491.45	-7493.57
1491.6	-7493.57
1491.75	-7493.57
1491.9	-7493.57
1492.05	-7493.57
1492.2	-7493.57
1492.35	-7493.57
1492.5	-7493.57
1492.65	-7493.57
1492.8	-7493.57
1492.95	-7493.57
1493.1	-7493.57
1493.25	-7493.57
1493.4	-7493.57
1493.55	-7493.57
1493.7	-8470.57
1493.85	-13689.8
1494	-18166.3
1494.15	-18166.3
1494.3	-18166.3
1494.45	-18166.3
1494.6	-18166.3
1494.75	-18166.3
1494.9	-18166.3
1495.05	-18166.3
1495.2	-18166.3
1495.35	-18166.3
1495.5	-18166.3
1495.65	-18166.3
1495.8	-18166.3
1495.95	-18166.3
1496.1	-18166.3
1496.25	-18166.3
1496.4	-18166.3
1496.55	-18166.3
1496.7	-18166.3
1496.85	-18166.3
1497	-18166.3
1497.15	-18166.3
1497.3	-18166.3
1497.45	-19371.8
1497.6	-22366.5
1497.75	-23107.2
1497.9	-23107.2
1498.05	-23107.2
1498.2	-23107.2
1498.35	-23107.2
1498.5	-23107.2
1498.65	-23107.2
1498.8	-23107.2
1498.95	-23107.2
1499.1	-23107.2
1499.25	-23107.2
1499.4	-23107.2
1499.55	-23107.2
1499.7	-23107.2
1499.85	-23107.2
1500	-23107.2
1500.15	-23107.2
1500.3	-23107.2
1500.45	-23107.2
1500.6	-23107.2
1500.75	-23107.2
1500.9	-23107.2
1501.05	-24299.9
1501.2	-28425.3
1501.35	-32103
1501.5	-32103
1501.65	-32103
1501.8	-32103
1501.95	-32103
1502.1	-32103
1502.25	-32103
1502.4	-32103
1502.55	-32103
1502.7	-32103
1502.85	-32103
1503	-32103
1503.15	-32103
1503.3	-32103
1503.45	-32103
1503.6	-32103
1503.75	-32103
1503.9	-32103
1504.05	-32103
1504.2	-32103
1504.35	-32103
1504.5	-32103
1504.65	-32100.7
1504.8	-32030.2
1504.95	-31918
1505.1	-31918
1505.25	-31918
1505.4	-31918
1505.55	-31918
1505.7	-31918
1505.85	-31918
1506	-31918
1506.15	-31918
1506.3	-31918
1506.45	-31918
1506.6	-31918
1506.75	-31918
1506.9	-31918
1507.05	-31918
1507.2	-31918
1507.35	-31918
1507.5	-31918
1507.65	-31918
1507.8	-31918
1507.95	-31918
1508.1	-31918
1508.25	-31918
1508.4	-28724.2
1508.55	-19858.8
1508.7	-15712.2
1508.85	-15712.2
1509	-15712.2
1509.15	-15712.2
1509.3	-15712.2
1509.45	-15712.2
1509.6	-15712.2
1509.75	-15712.2
1509.9	-15712.2
1510.05	-15712.2
1510.2	-15712.2
1510.35	-15712.2
1510.5	-15712.2
1510.65	-15712.2
1510.8	-15712.2
1510.95	-15712.2
1511.1	-15712.2
1511.25	-15712.2
1511.4	-15712.2
1511.55	-15712.2
1511.7	-15712.2
1511.85	-15712.2
1512	-13803.5
1512.15	-5817.99
1512.3	2240.46
1512.45	2240.46
1512.6	2240.46
1512.75	2240.46
1512.9	2240.46
1513.05	2240.46
1513.2	2240.46
1513.35	2240.46
1513.5	2240.46
1513.65	2240.46
1513.8	2240.46
1513.95	2240.46
1514.1	2240.46
1514.25	2240.46
1514.4	2240.46
1514.55	2240.46
1514.7	2240.46
1514.85	2240.46
1515	2240.46
1515.15	2240.46
1515.3	2240.46
1515.45	2240.46
1515.6	2240.46
1515.75	3213.18
1515.9	7207.3
1516.05	7814.57
1516.2	7814.57
1516.35	7814.57
1516.5	7814.57
1516.65	7814.57
1516.8	7814.57
1516.95	7814.57
1517.1	7814.57
1517.25	7814.57
1517.4	7814.57
1517.55	7814.57
1517.7	7814.57
1517.85	7814.57
1518	7814.57
1518.15	7814.57
1518.3	7814.57
1518.45	7814.57
1518.6	7814.57
1518.75	7814.57
1518.9	7814.57
1519.05	7814.57
1519.2	7814.57
1519.35	7747.56
1519.5	6673.25
1519.65	5585.08
1519.8	5585.08
1519.95	5585.08
1520.1	5585.08
1520.25	5585.08
1520.4	5585.08
1520.55	5585.08
1520.7	5585.08
1520.85	5585.08
1521	5585.08
1521.15	5585.08
1521.3	5585.08
1521.45	5585.08
1521.6	5585.08
1521.75	5585.08
1521.9	5585.08
1522.05	5585.08
1522.2	5585.08
1522.35	5585.08
1522.5	5585.08
1522.65	5585.08
1522.8	5585.08
1522.95	5585.08
1523.1	5156.1
1523.25	1102.33
1523.4	498.36
1523.55	498.36
1523.7	498.36
1523.85	498.36
1524	498.36
1524.15	498.36
1524.3	498.36
1524.45	498.36
1524.6	498.36
1524.75	498.36
1524.9	498.36
1525.05	498.36
1525.2	498.36
1525.35	498.36
1525.5	498.36
1525.65	498.36
1525.8	498.36
1525.95	498.36
1526.1	498.36
1526.25	498.36
1526.4	498.36
1526.55	498.36
1526.7	498.36
1526.85	-7912.88
1527	-14379.3
1527.15	-15721.6
1527.3	-15721.6
1527.45	-15721.6
1527.6	-15721.6
1527.75	-15721.6
1527.9	-15721.6
1528.05	-15721.6
1528.2	-15721.6
1528.35	-15721.6
1528.5	-15721.6
1528.65	-15721.6
1528.8	-15721.6
1528.95	-15721.6
1529.1	-15721.6
1529.25	-15721.6
1529.4	-15721.6
1529.55	-15721.6
1529.7	-15721.6
1529.85	-15721.6
1530	-15721.6
1530.15	-15721.6
1530.3	-15721.6
1530.45	-19418.7
1530.6	-29458.3
1530.75	-34937.3
1530.9	-34937.3
1531.05	-34937.3
1531.2	-34937.3
1531.35	-34937.3
1531.5	-34937.3
1531.65	-34937.3
1531.8	-34937.3
1531.95	-34937.3
1532.1	-34937.3
1532.25	-34937.3
1532.4	-34937.3
1532.55	-34937.3
1532.7	-34937.3
1532.85	-34937.3
1533	-34937.3
1533.15	-34937.3
1533.3	-34937.3
1533.45	-34937.3
1533.6	-34937.3
1533.75	-34937.3
1533.9	-34937.3
1534.05	-34937.3
1534.2	-29570.2
1534.35	-23677.5
1534.5	-23247.3
1534.65	-23247.3
1534.8	-23247.3
1534.95	-23247.3
1535.1	-23247.3
1535.25	-23247.3
1535.4	-23247.3
1535.55	-23247.3
1535.7	-23247.3
1535.85	-23247.3
1536	-23247.3
1536.15	-23247.3
1536.3	-23247.3
1536.45	-23247.3
1536.6	-23247.3
1536.75	-23247.3
1536.9	-23247.3
1537.05	-23247.3
1537.2	-23247.3
1537.35	-23247.3
1537.5	-23247.3
1537.65	-23247.3
1537.8	-12246.2
1537.95	11696.9
1538.1	24521.6
1538.25	24521.6
1538.4	24521.6
1538.55	24521.6
1538.7	24521.6
1538.85	24521.6
1539	24521.6
1539.15	24521.6
1539.3	24521.6
1539.45	24521.6
1539.6	24521.6
1539.75	24521.6
1539.9	24521.6
1540.05	24521.6
1540.2	24521.6
1540.35	24521.6
1540.5	24521.6
1540.65	24521.6
1540.8	24521.6
1540.95	24521.6
1541.1	24521.6
1541.25	24521.6
1541.4	24521.6
1541.55	30327.8
1541.7	61325.9
1541.85	64762
1542	64762
1542.15	64762
1542.3	64762
1542.45	64762
1542.6	64762
1542.75	64762
1542.9	64762
1543.05	64762
1543.2	64762
1543.35	64762
1543.5	64762
1543.65	64762
1543.8	64762
1543.95	64762
1544.1	64762
1544.25	64762
1544.4	64762
1544.55	64762
1544.7	64762
1544.85	64762
1545	64762
1545.15	64762
1545.3	68048.8
1545.45	72291.5
1545.6	73332.3
1545.75	73332.3
1545.9	73332.3
1546.05	73332.3
1546.2	73332.3
1546.35	73332.3
1546.5	73332.3
1546.65	73332.3
1546.8	73332.3
1546.95	73332.3
1547.1	73332.3
1547.25	73332.3
1547.4	73332.3
1547.55	73332.3
1547.7	73332.3
1547.85	73332.3
1548	73332.3
1548.15	73332.3
1548.3	73332.3
1548.45	73332.3
1548.6	73332.3
1548.75	73332.3
1548.9	73332.3
1549.05	72639.9
1549.2	71196.5
1549.35	70675.2
1549.5	70675.2
1549.65	70675.2
1549.8	70675.2
1549.95	70675.2
1550.1	70675.2
1550.25	70675.2
1550.4	70675.2
1550.55	70675.2
1550.7	70675.2
1550.85	70675.2
1551	70675.2
1551.15	70675.2
1551.3	70675.2
1551.45	70675.2
1551.6	70675.2
1551.75	70675.2
1551.9	70675.2
1552.05	70675.2
1552.2	70675.2
1552.35	70675.2
1552.5	70675.2
1552.65	70675.2
1552.8	69270.7
1552.95	50117.8
1553.1	49655.3
1553.25	49655.3
1553.4	49655.3
1553.55	49655.3
1553.7	49655.3
1553.85	49655.3
1554	49655.3
1554.15	49655.3
1554.3	49655.3
1554.45	49655.3
1554.6	49655.3
1554.75	49655.3
1554.9	49655.3
1555.05	49655.3
1555.2	49655.3
1555.35	49655.3
1555.5	49655.3
1555.65	49655.3
1555.8	49655.3
1555.95	49655.3
1556.1	49655.3
1556.25	49655.3
1556.4	49655.3
1556.55	23158.3
1556.7	-12684.4
1556.85	-25641.5
1557	-25641.5
1557.15	-25641.5
1557.3	-25641.5
1557.45	-25641.5
1557.6	-25641.5
1557.75	-25641.5
1557.9	-25641.5
1558.05	-25641.5
1558.2	-25641.5
1558.35	-25641.5
1558.5	-25641.5
1558.65	-25641.5
1558.8	-25641.5
1558.95	-25641.5
1559.1	-25641.5
1559.25	-25641.5
1559.4	-25641.5
1559.55	-25641.5
1559.7	-25641.5
1559.85	-25641.5
1560	-25641.5
1560.15	-31340.7
1560.3	-64968.9
1560.45	-115322
1560.6	-115322
1560.75	-115322
1560.9	-115322
1561.05	-115322
1561.2	-115322
1561.35	-115322
1561.5	-115322
1561.65	-115322
1561.8	-115322
1561.95	-115322
1562.1	-115322
1562.25	-115322
1562.4	-115322
1562.55	-115322
1562.7	-115322
1562.85	-115322
1563	-115322
1563.15	-115322
1563.3	-115322
1563.45	-115322
1563.6	-115322
1563.75	-115322
1563.9	-118101
1564.05	-122788
1564.2	-123762
1564.35	-123762
1564.5	-123762
1564.65	-123762
1564.8	-123762
1564.95	-123762
1565.1	-123762
1565.25	-123762
1565.4	-123762
1565.55	-123762
1565.7	-123762
1565.85	-123762
1566	-123762
1566.15	-123762
1566.3	-123762
1566.45	-123762
1566.6	-123762
1566.75	-123762
1566.9	-123762
1567.05	-123762
1567.2	-123762
1567.35	-123762
1567.5	-107520
1567.65	-76391.7
1567.8	-62085.1
1567.95	-62085.1
1568.1	-62085.1
1568.25	-62085.1
1568.4	-62085.1
1568.55	-62085.1
1568.7	-62085.1
1568.85	-62085.1
1569	-62085.1
1569.15	-62085.1
1569.3	-62085.1
1569.45	-62085.1
1569.6	-62085.1
1569.75	-62085.1
1569.9	-62085.1
1570.05	-62085.1
1570.2	-62085.1
1570.35	-62085.1
1570.5	-62085.1
1570.65	-62085.1
1570.8	-62085.1
1570.95	-62085.1
1571.1	-61119.3
1571.25	-44880.8
1571.4	-39040.5
1571.55	-39040.5
1571.7	-39040.5
1571.85	-39040.5
1572	-39040.5
1572.15	-39040.5
1572.3	-39040.5
1572.45	-39040.5
1572.6	-39040.5
1572.75	-39040.5
1572.9	-39040.5
1573.05	-39040.5
1573.2	-39040.5
1573.35	-39040.5
1573.5	-39040.5
1573.65	-39040.5
1573.8	-39040.5
1573.95	-39040.5
1574.1	-39040.5
1574.25	-39040.5
1574.4	-39040.5
1574.55	-39040.5
1574.7	-39040.5
1574.85	-42686.5
1575	-52684
1575.15	-56985.2
1575.3	-56985.2
1575.45	-56985.2
1575.6	-56985.2
1575.75	-56985.2
1575.9	-56985.2
1576.05	-56985.2
1576.2	-56985.2
1576.35	-56985.2
1576.5	-56985.2
1576.65	-56985.2
1576.8	-56985.2
1576.95	-56985.2
1577.1	-56985.2
1577.25	-56985.2
1577.4	-56985.2
1577.55	-56985.2
1577.7	-56985.2
1577.85	-56985.2
1578	-56985.2
1578.15	-56985.2
1578.3	-56985.2
1578.45	-50572
1578.6	-26655.8
1578.75	-5134.38
1578.9	-5134.38
1579.05	-5134.38
1579.2	-5134.38
1579.35	-5134.38
1579.5	-5134.38
1579.65	-5134.38
1579.8	-5134.38
1579.95	-5134.38
1580.1	-5134.38
1580.25	-5134.38
1580.4	-5134.38
1580.55	-5134.38
1580.7	-5134.38
1580.85	-5134.38
1581	-5134.38
1581.15	-5134.38
1581.3	-5134.38
1581.45	-5134.38
1581.6	-5134.38
1581.75	-5134.38
1581.9	-5134.38
1582.05	-5134.38
1582.2	11736.5
1582.35	97485.6
1582.5	108019
1582.65	108019
1582.8	108019
1582.95	108019
1583.1	108019
1583.25	108019
1583.4	108019
1583.55	108019
1583.7	108019
1583.85	108019
1584	108019
1584.15	108019
1584.3	108019
1584.45	108019
1584.6	108019
1584.75	108019
1584.9	108019
1585.05	108019
1585.2	108019
1585.35	108019
1585.5	108019
1585.65	108019
1585.8	108019
1585.95	116510
1586.1	131707
1586.25	138894
1586.4	138894
1586.55	138894
1586.7	138894
1586.85	138894
1587	138894
1587.15	138894
1587.3	138894
1587.45	138894
1587.6	138894
1587.75	138894
1587.9	138894
1588.05	138894
1588.2	138894
1588.35	138894
1588.5	138894
1588.65	138894
1588.8	138894
1588.95	138894
1589.1	138894
1589.25	138894
1589.4	138894
1589.55	138894
1589.7	134183
1589.85	91743.2
1590	72017.2
1590.15	72017.2
1590.3	72017.2
1590.45	72017.2
1590.6	72017.2
1590.75	72017.2
1590.9	72017.2
1591.05	72017.2
1591.2	72017.2
1591.35	72017.2
1591.5	72017.2
1591.65	72017.2
1591.8	72017.2
1591.95	72017.2
1592.1	72017.2
1592.25	72017.2
1592.4	72017.2
1592.55	72017.2
1592.7	72017.2
1592.85	72017.2
1593	72017.2
1593.15	72017.2
1593.3	72017.2
1593.45	68774
1593.6	56447.6
1593.75	51809.2
1593.9	51809.2
1594.05	51809.2
1594.2	51809.2
1594.35	51809.2
1594.5	51809.2
1594.65	51809.2
1594.8	51809.2
1594.95	51809.2
1595.1	51809.2
1595.25	51809.2
1595.4	51809.2
1595.55	51809.2
1595.7	51809.2
1595.85	51809.2
1596	51809.2
1596.15	51809.2
1596.3	51809.2
1596.45	51809.2
1596.6	51809.2
1596.75	51809.2
1596.9	51809.2
1597.05	52252.6
1597.2	66811.8
1597.35	95810.4
1597.5	95810.4
1597.65	95810.4
1597.8	95810.4
1597.95	95810.4
1598.1	95810.4
1598.25	95810.4
1598.4	95810.4
1598.55	95810.4
1598.7	95810.4
1598.85	95810.4
1599	95810.4
1599.15	95810.4
1599.3	95810.4
1599.45	95810.4
1599.6	95810.4
1599.75	95810.4
1599.9	95810.4
1600.05	95810.4
1600.2	95810.4
1600.35	95810.4
1600.5	95810.4
1600.65	95810.4
1600.8	95810.4
1600.95	71395
1601.1	48731.7
1601.25	46911.3
1601.4	46911.3
1601.55	46911.3
1601.7	46911.3
1601.85	46911.3
1602	46911.3
1602.15	46911.3
1602.3	46911.3
1602.45	46911.3
1602.6	46911.3
1602.75	46911.3
1602.9	46911.3
1603.05	46911.3
1603.2	46911.3
1603.35	46911.3
1603.5	46911.3
1603.65	46911.3
1603.8	46911.3
1603.95	46911.3
1604.1	46911.3
1604.25	46911.3
1604.4	46911.3
1604.55	15631.5
1604.7	-64745.6
1604.85	-112352
1605	-112352
1605.15	-112352
1605.3	-112352
1605.45	-112352
1605.6	-112352
1605.75	-112352
1605.9	-112352
1606.05	-112352
1606.2	-112352
1606.35	-112352
1606.5	-112352
1606.65	-112352
1606.8	-112352
1606.95	-112352
1607.1	-112352
1607.25	-112352
1607.4	-112352
1607.55	-112352
1607.7	-112352
1607.85	-112352
1608	-112352
1608.15	-119814
1608.3	-160029
1608.45	-179031
1608.6	-179031
1608.75	-179031
1608.9	-179031
1609.05	-179031
1609.2	-179031
1609.35	-179031
1609.5	-179031
1609.65	-179031
1609.8	-179031
1609.95	-179031
1610.1	-179031
1610.25	-179031
1610.4	-179031
1610.55	-179031
1610.7	-179031
1610.85	-179031
1611	-179031
1611.15	-179031
1611.3	-179031
1611.45	-179031
1611.6	-179031
1611.75	-98372.3
1611.9	-68947.9
1612.05	-66389.6
1612.2	-66389.6
1612.35	-66389.6
1612.5	-66389.6
1612.65	-66389.6
1612.8	-66389.6
1612.95	-66389.6
1613.1	-66389.6
1613.25	-66389.6
1613.4	-66389.6
1613.55	-66389.6
1613.7	-66389.6
1613.85	-66389.6
1614	-66389.6
1614.15	-66389.6
1614.3	-66389.6
1614.45	-66389.6
1614.6	-66389.6
1614.75	-66389.6
1614.9	-66389.6
1615.05	-66389.6
1615.2	-63939.6
1615.35	-15973.9
1615.5	46686.9
1615.65	46686.9
1615.8	46686.9
1615.95	46686.9
1616.1	46686.9
1616.25	46686.9
1616.4	46686.9
1616.55	46686.9
1616.7	46686.9
1616.85	46686.9
1617	46686.9
1617.15	46686.9
1617.3	46686.9
1617.45	46686.9
1617.6	46686.9
1617.75	46686.9
1617.9	46686.9
1618.05	46686.9
1618.2	46686.9
1618.35	46686.9
1618.5	46686.9
1618.65	46686.9
1618.8	46686.9
1618.95	46078.3
1619.1	27879.1
1619.25	21390.6
1619.4	21390.6
1619.55	21390.6
1619.7	21390.6
1619.85	21390.6
1620	21390.6
1620.15	21390.6
1620.3	21390.6
1620.45	21390.6
1620.6	21390.6
1620.75	21390.6
1620.9	21390.6
1621.05	21390.6
1621.2	21390.6
1621.35	21390.6
1621.5	21390.6
1621.65	21390.6
1621.8	21390.6
1621.95	21390.6
1622.1	21390.6
1622.25	21390.6
1622.4	21390.6
1622.55	21390.6
1622.7	-12299.1
1622.85	-34612.2
1623	-36969.5
1623.15	-36969.5
1623.3	-36969.5
1623.45	-36969.5
1623.6	-36969.5
1623.75	-36969.5
1623.9	-36969.5
1624.05	-36969.5
1624.2	-36969.5
1624.35	-36969.5
1624.5	-36969.5
1624.65	-36969.5
1624.8	-36969.5
1624.95	-36969.5
1625.1	-36969.5
1625.25	-36969.5
1625.4	-36969.5
1625.55	-36969.5
1625.7	-36969.5
1625.85	-36969.5
1626	-36969.5
1626.15	-35654.3
1626.3	-27093.7
1626.45	-12682.8
1626.6	-12682.8
1626.75	-12682.8
1626.9	-12682.8
1627.05	-12682.8
1627.2	-12682.8
1627.35	-12682.8
1627.5	-12682.8
1627.65	-12682.8
1627.8	-12682.8
1627.95	-12682.8
1628.1	-12682.8
1628.25	-12682.8
1628.4	-12682.8
1628.55	-12682.8
1628.7	-12682.8
1628.85	-12682.8
1629	-12682.8
1629.15	-12682.8
1629.3	-12682.8
1629.45	-12682.8
1629.6	-12682.8
1629.75	-12682.8
1629.9	-12682.8
1630.05	9610.17
1630.2	14612.3
1630.35	14922.6
1630.5	14922.6
1630.65	14922.6
1630.8	14922.6
1630.95	14922.6
1631.1	14922.6
1631.25	14922.6
1631.4	14922.6
1631.55	14922.6
1631.7	14922.6
1631.85	14922.6
1632	14922.6
1632.15	14922.6
1632.3	14922.6
1632.45	14922.6
1632.6	14922.6
1632.75	14922.6
1632.9	14922.6
1633.05	14922.6
1633.2	14922.6
1633.35	14922.6
1633.5	14922.6
1633.65	-14704.8
1633.8	-45019.5
1633.95	-45343
1634.1	-45343
1634.25	-45343
1634.4	-45343
1634.55	-45343
1634.7	-45343
1634.85	-45343
1635	-45343
1635.15	-45343
1635.3	-45343
1635.45	-45343
1635.6	-45343
1635.75	-45343
1635.9	-45343
1636.05	-45343
1636.2	-45343
1636.35	-45343
1636.5	-45343
1636.65	-45343
1636.8	-45343
1636.95	-45343
1637.1	-47194.7
1637.25	-64540.2
1637.4	-102133
1637.55	-102133
1637.7	-102133
1637.85	-102133
1638	-102133
1638.15	-102133
1638.3	-102133
1638.45	-102133
1638.6	-102133
1638.75	-102133
1638.9	-102133
1639.05	-102133
1639.2	-102133
1639.35	-102133
1639.5	-102133
1639.65	-102133
1639.8	-102133
1639.95	-102133
1640.1	-102133
1640.25	-102133
1640.4	-102133
1640.55	-102133
1640.7	-102133
1640.85	-81438.2
1641	-47751.4
1641.15	-37871.1
1641.3	-37871.1
1641.45	-37871.1
1641.6	-37871.1
1641.75	-37871.1
1641.9	-37871.1
1642.05	-37871.1
1642.2	-37871.1
1642.35	-37871.1
1642.5	-37871.1
1642.65	-37871.1
1642.8	-37871.1
1642.95	-37871.1
1643.1	-37871.1
1643.25	-37871.1
1643.4	-37871.1
1643.55	-37871.1
1643.7	-37871.1
1643.85	-37871.1
1644	-37871.1
1644.15	-37871.1
1644.3	-37871.1
1644.45	-10661.2
1644.6	54240.8
1644.75	85803.7
1644.9	85803.7
1645.05	85803.7
1645.2	85803.7
1645.35	85803.7
1645.5	85803.7
1645.65	85803.7
1645.8	85803.7
1645.95	85803.7
1646.1	85803.7
1646.25	85803.7
1646.4	85803.7
1646.55	85803.7
1646.7	85803.7
1646.85	85803.7
1647	85803.7
1647.15	85803.7
1647.3	85803.7
1647.45	85803.7
1647.6	85803.7
1647.75	85803.7
1647.9	85803.7
1648.05	85803.7
1648.2	91745.2
1648.35	132715
1648.5	134411
1648.65	134411
1648.8	134411
1648.95	134411
1649.1	134411
1649.25	134411
1649.4	134411
1649.55	134411
1649.7	134411
1649.85	134411
1650	134411
1650.15	134411
1650.3	134411
1650.45	134411
1650.6	134411
1650.75	134411
1650.9	134411
1651.05	134411
1651.2	134411
1651.35	134411
1651.5	134411
1651.65	134411
1651.8	134411
1651.95	124898
1652.1	107111
1652.25	98658.1
1652.4	98658.1
1652.55	98658.1
1652.7	98658.1
1652.85	98658.1
1653	98658.1
1653.15	98658.1
1653.3	98658.1
1653.45	98658.1
1653.6	98658.1
1653.75	98658.1
1653.9	98658.1
1654.05	98658.1
1654.2	98658.1
1654.35	98658.1
1654.5	98658.1
1654.65	98658.1
1654.8	98658.1
1654.95	98658.1
1655.1	98658.1
1655.25	98658.1
1655.4	98658.1
1655.55	98658.1
1655.7	90782.5
1655.85	53342.6
1656	49615.5
1656.15	49615.5
1656.3	49615.5
1656.45	49615.5
1656.6	49615.5
1656.75	49615.5
1656.9	49615.5
1657.05	49615.5
1657.2	49615.5
1657.35	49615.5
1657.5	49615.5
1657.65	49615.5
1657.8	49615.5
1657.95	49615.5
1658.1	49615.5
1658.25	49615.5
1658.4	49615.5
1658.55	49615.5
1658.7	49615.5
1658.85	49615.5
1659	49615.5
1659.15	49615.5
1659.3	49615.5
1659.45	25815.8
1659.6	5064.19
1659.75	878.454
1659.9	878.454
1660.05	878.454
1660.2	878.454
1660.35	878.454
1660.5	878.454
1660.65	878.454
1660.8	878.454
1660.95	878.454
1661.1	878.454
1661.25	878.454
1661.4	878.454
1661.55	878.454
1661.7	878.454
1661.85	878.454
1662	878.454
1662.15	878.454
1662.3	878.454
1662.45	878.454
1662.6	878.454
1662.75	878.454
1662.9	878.454
1663.05	-14372.3
1663.2	-43812.4
1663.35	-55209.3
1663.5	-55209.3
1663.65	-55209.3
1663.8	-55209.3
1663.95	-55209.3
1664.1	-55209.3
1664.25	-55209.3
1664.4	-55209.3
1664.55	-55209.3
1664.7	-55209.3
1664.85	-55209.3
1665	-55209.3
1665.15	-55209.3
1665.3	-55209.3
1665.45	-55209.3
1665.6	-55209.3
1665.75	-55209.3
1665.9	-55209.3
1666.05	-55209.3
1666.2	-55209.3
1666.35	-55209.3
1666.5	-55209.3
1666.65	-55533.3
1666.8	-68502.8
1666.95	-72595.7
1667.1	-72595.7
1667.25	-72595.7
1667.4	-72595.7
1667.55	-72595.7
1667.7	-72595.7
1667.85	-72595.7
1668	-72595.7
1668.15	-72595.7
1668.3	-72595.7
1668.45	-72595.7
1668.6	-72595.7
1668.75	-72595.7
1668.9	-72595.7
1669.05	-72595.7
1669.2	-72595.7
1669.35	-72595.7
1669.5	-72595.7
1669.65	-72595.7
1669.8	-72595.7
1669.95	-72595.7
1670.1	-72595.7
1670.25	-72595.7
1670.4	-47899.9
1670.55	-32142
1670.7	-30985.9
1670.85	-30985.9
1671	-30985.9
1671.15	-30985.9
1671.3	-30985.9
1671.45	-30985.9
1671.6	-30985.9
1671.75	-30985.9
1671.9	-30985.9
1672.05	-30985.9
1672.2	-30985.9
1672.35	-30985.9
1672.5	-30985.9
1672.65	-30985.9
1672.8	-30985.9
1672.95	-30985.9
1673.1	-30985.9
1673.25	-30985.9
1673.4	-30985.9
1673.55	-30985.9
1673.7	-30985.9
1673.85	-27137.1
1674	-9683.96
1674.15	11066.8
1674.3	11066.8
1674.45	11066.8
1674.6	11066.8
1674.75	11066.8
1674.9	11066.8
1675.05	11066.8
1675.2	11066.8
1675.35	11066.8
1675.5	11066.8
1675.65	11066.8
1675.8	11066.8
1675.95	11066.8
1676.1	11066.8
1676.25	11066.8
1676.4	11066.8
1676.55	11066.8
1676.7	11066.8
1676.85	11066.8
1677	11066.8
1677.15	11066.8
1677.3	11066.8
1677.45	11066.8
1677.6	11066.8
1677.75	29296.4
1677.9	33543.8
1678.05	33811
1678.2	33811
1678.35	33811
1678.5	33811
1678.65	33811
1678.8	33811
1678.95	33811
1679.1	33811
1679.25	33811
1679.4	33811
1679.55	33811
1679.7	33811
1679.85	33811
1680	33811
1680.15	33811
1680.3	33811
1680.45	33811
1680.6	33811
1680.75	33811
1680.9	33811
1681.05	33811
1681.2	33811
1681.35	45255.5
1681.5	71633.8
1681.65	87672.9
1681.8	87672.9
1681.95	87672.9
1682.1	87672.9
1682.25	87672.9
1682.4	87672.9
1682.55	87672.9
1682.7	87672.9
1682.85	87672.9
1683	87672.9
1683.15	87672.9
1683.3	87672.9
1683.45	87672.9
1683.6	87672.9
1683.75	87672.9
1683.9	87672.9
1684.05	87672.9
1684.2	87672.9
1684.35	87672.9
1684.5	87672.9
1684.65	87672.9
1684.8	87672.9
1684.95	88457.2
1685.1	98276.7
1685.25	129856
1685.4	129856
1685.55	129856
1685.7	129856
1685.85	129856
1686	129856
1686.15	129856
1686.3	129856
1686.45	129856
1686.6	129856
1686.75	129856
1686.9	129856
1687.05	129856
1687.2	129856
1687.35	129856
1687.5	129856
1687.65	129856
1687.8	129856
1687.95	129856
1688.1	129856
1688.25	129856
1688.4	129856
1688.55	129856
1688.7	129856
1688.85	129856
1689	66915.7
1689.15	34204.7
1689.3	32152.5
1689.45	32152.5
1689.6	32152.5
1689.75	32152.5
1689.9	32152.5
1690.05	32152.5
1690.2	32152.5
1690.35	32152.5
1690.5	32152.5
1690.65	32152.5
1690.8	32152.5
1690.95	32152.5
1691.1	32152.5
1691.25	32152.5
1691.4	32152.5
1691.55	32152.5
1691.7	32152.5
1691.85	32152.5
1692	32152.5
1692.15	32152.5
1692.3	32152.5
1692.45	32152.5
1692.6	19501.8
1692.75	-51168.2
1692.9	-153954
1693.05	-153954
1693.2	-153954
1693.35	-153954
1693.5	-153954
1693.65	-153954
1693.8	-153954
1693.95	-153954
1694.1	-153954
1694.25	-153954
1694.4	-153954
1694.55	-153954
1694.7	-153954
1694.85	-153954
1695	-153954
1695.15	-153954
1695.3	-153954
1695.45	-153954
1695.6	-153954
1695.75	-153954
1695.9	-153954
1696.05	-153954
1696.2	-153954
1696.35	-161323
1696.5	-191915
1696.65	-195066
1696.8	-195066
1696.95	-195066
1697.1	-195066
1697.25	-195066
1697.4	-195066
1697.55	-195066
1697.7	-195066
1697.85	-195066
1698	-195066
1698.15	-195066
1698.3	-195066
1698.45	-195066
1698.6	-195066
1698.75	-195066
1698.9	-195066
1699.05	-195066
1699.2	-195066
1699.35	-195066
1699.5	-195066
1699.65	-195066
1699.8	-195066
1699.95	-179025
1700.1	-107737
1700.25	-54899.3
1700.4	-54899.3
1700.55	-54899.3
1700.7	-54899.3
1700.85	-54899.3
1701	-54899.3
1701.15	-54899.3
1701.3	-54899.3
1701.45	-54899.3
1701.6	-54899.3
1701.75	-54899.3
1701.9	-54899.3
1702.05	-54899.3
1702.2	-54899.3
1702.35	-54899.3
1702.5	-54899.3
1702.65	-54899.3
1702.8	-54899.3
1702.95	-54899.3
1703.1	-54899.3
1703.25	-54899.3
1703.4	-54899.3
1703.55	-54899.3
1703.7	-52179.3
1703.85	-28360
1704	20148.4
1704.15	20148.4
1704.3	20148.4
1704.45	20148.4
1704.6	20148.4
1704.75	20148.4
1704.9	20148.4
1705.05	20148.4
1705.2	20148.4
1705.35	20148.4
1705.5	20148.4
1705.65	20148.4
1705.8	20148.4
1705.95	20148.4
1706.1	20148.4
1706.25	20148.4
1706.4	20148.4
1706.55	20148.4
1706.7	20148.4
1706.85	20148.4
1707	20148.4
1707.15	20148.4
1707.3	20148.4
1707.45	20148.4
1707.6	20148.4
1707.75	-40971.5
1707.9	-72776.6
1708.05	-76194.1
1708.2	-76194.1
1708.35	-76194.1
1708.5	-76194.1
1708.65	-76194.1
1708.8	-76194.1
1708.95	-76194.1
1709.1	-76194.1
1709.25	-76194.1
1709.4	-76194.1
1709.55	-76194.1
1709.7	-76194.1
1709.85	-76194.1
1710	-76194.1
1710.15	-76194.1
1710.3	-76194.1
1710.45	-76194.1
1710.6	-76194.1
1710.75	-76194.1
1710.9	-76194.1
1711.05	-76194.1
1711.2	-76194.1
1711.35	-76194.1
1711.5	-88936.3
1711.65	-121953
1711.8	-135680
1711.95	-135680
1712.1	-135680
1712.25	-135680
1712.4	-135680
1712.55	-135680
1712.7	-135680
1712.85	-135680
1713	-135680
1713.15	-135680
1713.3	-135680
1713.45	-135680
1713.6	-135680
1713.75	-135680
1713.9	-135680
1714.05	-135680
1714.2	-135680
1714.35	-135680
1714.5	-135680
1714.65	-135680
1714.8	-135680
1714.95	-135680
1715.1	-135680
1715.25	-135680
1715.4	-68520.2
1715.55	-29648.2
1715.7	-26131.4
1715.85	-26131.4
1716	-26131.4
1716.15	-26131.4
1716.3	-26131.4
1716.45	-26131.4
1716.6	-26131.4
1716.75	-26131.4
1716.9	-26131.4
1717.05	-26131.4
1717.2	-26131.4
1717.35	-26131.4
1717.5	-26131.4
1717.65	-26131.4
1717.8	-26131.4
1717.95	-26131.4
1718.1	-26131.4
1718.25	-26131.4
1718.4	-26131.4
1718.55	-26131.4
1718.7	-26131.4
1718.85	-26131.4
1719	-26131.4
1719.15	-11071.8
1719.3	49687.8
1719.45	95734.6
1719.6	95734.6
1719.75	95734.6
1719.9	95734.6
1720.05	95734.6
1720.2	95734.6
1720.35	95734.6
1720.5	95734.6
1720.65	95734.6
1720.8	95734.6
1720.95	95734.6
1721.1	95734.6
1721.25	95734.6
1721.4	95734.6
1721.55	95734.6
1721.7	95734.6
1721.85	95734.6
1722	95734.6
1722.15	95734.6
1722.3	95734.6
1722.45	95734.6
1722.6	95734.6
1722.75	95734.6
1722.9	95734.6
1723.05	95734.6
1723.2	95986.6
1723.35	98653.6
1723.5	99638.6
1723.65	99638.6
1723.8	99638.6
1723.95	99638.6
1724.1	99638.6
1724.25	99638.6
1724.4	99638.6
1724.55	99638.6
1724.7	99638.6
1724.85	99638.6
1725	99638.6
1725.15	99638.6
1725.3	99638.6
1725.45	99638.6
1725.6	99638.6
1725.75	99638.6
1725.9	99638.6
1726.05	99638.6
1726.2	99638.6
1726.35	99638.6
1726.5	99638.6
1726.65	99638.6
1726.8	99638.6
1726.95	99638.6
1727.1	99638.6
1727.25	90448.4
1727.4	71079.1
1727.55	63276.8
1727.7	63276.8
1727.85	63276.8
1728	63276.8
1728.15	63276.8
1728.3	63276.8
1728.45	63276.8
1728.6	63276.8
1728.75	63276.8
1728.9	63276.8
1729.05	63276.8
1729.2	63276.8
1729.35	63276.8
1729.5	63276.8
1729.65	63276.8
1729.8	63276.8
1729.95	63276.8
1730.1	63276.8
1730.25	63276.8
1730.4	63276.8
1730.55	63276.8
1730.7	63276.8
1730.85	63276.8
1731	63276.8
1731.15	60873.2
1731.3	52319.5
1731.45	47294.1
1731.6	47294.1
1731.75	47294.1
1731.9	47294.1
1732.05	47294.1
1732.2	47294.1
1732.35	47294.1
1732.5	47294.1
1732.65	47294.1
1732.8	47294.1
1732.95	47294.1
1733.1	47294.1
1733.25	47294.1
1733.4	47294.1
1733.55	47294.1
1733.7	47294.1
1733.85	47294.1
1734	47294.1
1734.15	47294.1
1734.3	47294.1
1734.45	47294.1
1734.6	47294.1
1734.75	47294.1
1734.9	47294.1
1735.05	47294.1
1735.2	39575.9
1735.35	32637.1
1735.5	31469.8
1735.65	31469.8
1735.8	31469.8
1735.95	31469.8
1736.1	31469.8
1736.25	31469.8
1736.4	31469.8
1736.55	31469.8
1736.7	31469.8
1736.85	31469.8
1737	31469.8
1737.15	31469.8
1737.3	31469.8
1737.45	31469.8
1737.6	31469.8
1737.75	31469.8
1737.9	31469.8
1738.05	31469.8
1738.2	31469.8
1738.35	31469.8
1738.5	31469.8
1738.65	31469.8
1738.8	31469.8
1738.95	31469.8
1739.1	41131.2
1739.25	66818.5
1739.4	85068.6
1739.55	85068.6
1739.7	85068.6
1739.85	85068.6
1740	85068.6
1740.15	85068.6
1740.3	85068.6
1740.45	85068.6
1740.6	85068.6
1740.75	85068.6
1740.9	85068.6
1741.05	85068.6
1741.2	85068.6
1741.35	85068.6
1741.5	85068.6
1741.65	85068.6
1741.8	85068.6
1741.95	85068.6
1742.1	85068.6
1742.25	85068.6
1742.4	85068.6
1742.55	85068.6
1742.7	85068.6
1742.85	85068.6
1743	85911.5
1743.15	179237
1743.3	242307
1743.45	242825
1743.6	242825
1743.75	242825
1743.9	242825
1744.05	242825
1744.2	242825
1744.35	242825
1744.5	242825
1744.65	242825
1744.8	242825
1744.95	242825
1745.1	242825
1745.25	242825
1745.4	242825
1745.55	242825
1745.7	242825
1745.85	242825
1746	242825
1746.15	242825
1746.3	242825
1746.45	242825
1746.6	242825
1746.75	242825
1746.9	242825
1747.05	258493
1747.2	283220
1747.35	293481
1747.5	293481
1747.65	293481
1747.8	293481
1747.95	293481
1748.1	293481
1748.25	293481
1748.4	293481
1748.55	293481
1748.7	293481
1748.85	293481
1749	293481
1749.15	293481
1749.3	293481
1749.45	293481
1749.6	293481
1749.75	293481
1749.9	293481
1750.05	293481
1750.2	293481
1750.35	293481
1750.5	293481
1750.65	293481
1750.8	293481
1750.95	293481
1751.1	277469
1751.25	176403
1751.4	74939.8
1751.55	74939.8
1751.7	74939.8
1751.85	74939.8
1752	74939.8
1752.15	74939.8
1752.3	74939.8
1752.45	74939.8
1752.6	74939.8
1752.75	74939.8
1752.9	74939.8
1753.05	74939.8
1753.2	74939.8
1753.35	74939.8
1753.5	74939.8
1753.65	74939.8
1753.8	74939.8
1753.95	74939.8
1754.1	74939.8
1754.25	74939.8
1754.4	74939.8
1754.55	74939.8
1754.7	74939.8
1754.85	74939.8
1755	74939.8
1755.15	-118348
1755.3	-190263
1755.45	-192319
1755.6	-192319
1755.75	-192319
1755.9	-192319
1756.05	-192319
1756.2	-192319
1756.35	-192319
1756.5	-192319
1756.65	-192319
1756.8	-192319
1756.95	-192319
1757.1	-192319
1757.25	-192319
1757.4	-192319
1757.55	-192319
1757.7	-192319
1757.85	-192319
1758	-192319
1758.15	-192319
1758.3	-192319
1758.45	-192319
1758.6	-192319
1758.75	-209134
1758.9	-247126
1759.05	-262650
1759.2	-262650
1759.35	-262650
1759.5	-262650
1759.65	-262650
1759.8	-262650
1759.95	-262650
1760.1	-262650
1760.25	-262650
1760.4	-262650
1760.55	-262650
1760.7	-262650
1760.85	-262650
1761	-262650
1761.15	-262650
1761.3	-262650
1761.45	-262650
1761.6	-262650
1761.75	-262650
1761.9	-262650
1762.05	-262650
1762.2	-262650
1762.35	-262650
1762.5	-271418
1762.65	-272939
1762.8	-272992
1762.95	-272992
1763.1	-272992
1763.25	-272992
1763.4	-272992
1763.55	-272992
1763.7	-272992
1763.85	-272992
1764	-272992
1764.15	-272992
1764.3	-272992
1764.45	-272992
1764.6	-272992
1764.75	-272992
1764.9	-272992
1765.05	-272992
1765.2	-272992
1765.35	-272992
1765.5	-272992
1765.65	-272992
1765.8	-272992
1765.95	-272992
1766.1	-321158
1766.25	-362324
1766.4	-368205
1766.55	-368205
1766.7	-368205
1766.85	-368205
1767	-368205
1767.15	-368205
1767.3	-368205
1767.45	-368205
1767.6	-368205
1767.75	-368205
1767.9	-368205
1768.05	-368205
1768.2	-368205
1768.35	-368205
1768.5	-368205
1768.65	-368205
1768.8	-368205
1768.95	-368205
1769.1	-368205
1769.25	-368205
1769.4	-368205
1769.55	-368205
1769.7	-358287
1769.85	-318409
1770	-309266
1770.15	-309266
1770.3	-309266
1770.45	-309266
1770.6	-309266
1770.75	-309266
1770.9	-309266
1771.05	-309266
1771.2	-309266
1771.35	-309266
1771.5	-309266
1771.65	-309266
1771.8	-309266
1771.95	-309266
1772.1	-309266
1772.25	-309266
1772.4	-309266
1772.55	-309266
1772.7	-309266
1772.85	-309266
1773	-309266
1773.15	-309266
1773.3	-309266
1773.45	-206763
1773.6	10212.6
1773.75	56342.3
1773.9	56342.3
1774.05	56342.3
1774.2	56342.3
1774.35	56342.3
1774.5	56342.3
1774.65	56342.3
1774.8	56342.3
1774.95	56342.3
1775.1	56342.3
1775.25	56342.3
1775.4	56342.3
1775.55	56342.3
1775.7	56342.3
1775.85	56342.3
1776	56342.3
1776.15	56342.3
1776.3	56342.3
1776.45	56342.3
1776.6	56342.3
1776.75	56342.3
1776.9	56342.3
1777.05	56342.3
1777.2	165488
1777.35	333709
1777.5	363242
1777.65	363242
1777.8	363242
1777.95	363242
1778.1	363242
1778.25	363242
1778.4	363242
1778.55	363242
1778.7	363242
1778.85	363242
1779	363242
1779.15	363242
1779.3	363242
1779.45	363242
1779.6	363242
1779.75	363242
1779.9	363242
1780.05	363242
1780.2	363242
1780.35	363242
1780.5	363242
1780.65	363242
1780.8	363242
1780.95	363242
1781.1	363242
1781.25	363242
1781.4	363242
1781.55	363242
1781.7	348765
1781.85	281540
1782	277638
1782.15	277638
1782.3	277638
1782.45	277638
1782.6	277638
1782.75	277638
1782.9	277638
1783.05	277638
1783.2	277638
1783.35	277638
1783.5	277638
1783.65	277638
1783.8	277638
1783.95	277638
1784.1	277638
1784.25	277638
1784.4	277638
1784.55	277638
1784.7	277638
1784.85	277638
1785	277638
1785.15	277638
1785.3	277638
1785.45	277638
1785.6	277638
1785.75	277638
1785.9	186390
1786.05	72535.4
1786.2	45178.3
1786.35	45178.3
1786.5	45178.3
1786.65	45178.3
1786.8	45178.3
1786.95	45178.3
1787.1	45178.3
1787.25	45178.3
1787.4	45178.3
1787.55	45178.3
1787.7	45178.3
1787.85	45178.3
1788	45178.3
1788.15	45178.3
1788.3	45178.3
1788.45	45178.3
1788.6	45178.3
1788.75	45178.3
1788.9	45178.3
1789.05	45178.3
1789.2	45178.3
1789.35	45178.3
1789.5	45178.3
1789.65	45178.3
1789.8	43782.7
1789.95	30006.9
1790.1	22742.3
1790.25	22742.3
1790.4	22742.3
1790.55	22742.3
1790.7	22742.3
1790.85	22742.3
1791	22742.3
1791.15	22742.3
1791.3	22742.3
1791.45	22742.3
1791.6	22742.3
1791.75	22742.3
1791.9	22742.3
1792.05	22742.3
1792.2	22742.3
1792.35	22742.3
1792.5	22742.3
1792.65	22742.3
1792.8	22742.3
1792.95	22742.3
1793.1	22742.3
1793.25	22742.3
1793.4	22742.3
1793.55	22742.3
1793.7	22742.3
1793.85	22742.3
1794	22742.3
1794.15	22742.3
1794.3	71964.1
1794.45	110895
1794.6	117293
1794.75	117293
1794.9	117293
1795.05	117293
1795.2	117293
1795.35	117293
1795.5	117293
1795.65	117293
1795.8	117293
1795.95	117293
1796.1	117293
1796.25	117293
1796.4	117293
1796.55	117293
1796.7	117293
1796.85	117293
1797	117293
1797.15	117293
1797.3	117293
1797.45	117293
1797.6	117293
1797.75	117293
1797.9	117293
1798.05	117293
1798.2	117293
1798.35	117293
1798.5	115468
1798.65	106058
1798.8	99382
1798.95	99382
1799.1	99382
1799.25	99382
1799.4	99382
1799.55	99382
1799.7	99382
1799.85	99382
1800	99382
1800.15	99382
1800.3	99382
1800.45	99382
1800.6	99382
1800.75	99382
1800.9	99382
1801.05	99382
1801.2	99382
1801.35	99382
1801.5	99382
1801.65	99382
1801.8	99382
1801.95	99382
1802.1	99382
1802.25	99382
1802.4	99382
1802.55	99382
1802.7	99382
1802.85	99382
1803	53864.9
1803.15	13947.4
1803.3	4590.75
1803.45	4590.75
1803.6	4590.75
1803.75	4590.75
1803.9	4590.75
1804.05	4590.75
1804.2	4590.75
1804.35	4590.75
1804.5	4590.75
1804.65	4590.75
1804.8	4590.75
1804.95	4590.75
1805.1	4590.75
1805.25	4590.75
1805.4	4590.75
1805.55	4590.75
1805.7	4590.75
1805.85	4590.75
1806	4590.75
1806.15	4590.75
1806.3	4590.75
1806.45	4590.75
1806.6	4590.75
1806.75	4590.75
1806.9	4590.75
1807.05	4590.75
1807.2	4590.75
1807.35	-17747.7
1807.5	-87471.5
1807.65	-102938
1807.8	-102938
1807.95	-102938
1808.1	-102938
1808.25	-102938
1808.4	-102938
1808.55	-102938
1808.7	-102938
1808.85	-102938
1809	-102938
1809.15	-102938
1809.3	-102938
1809.45	-102938
1809.6	-102938
1809.75	-102938
1809.9	-102938
1810.05	-102938
1810.2	-102938
1810.35	-102938
1810.5	-102938
1810.65	-102938
1810.8	-102938
1810.95	-102938
1811.1	-102938
1811.25	-102938
1811.4	-102938
1811.55	-102938
1811.7	-102938
1811.85	-215985
1812	-267338
1812.15	-273580
1812.3	-273580
1812.45	-273580
1812.6	-273580
1812.75	-273580
1812.9	-273580
1813.05	-273580
1813.2	-273580
1813.35	-273580
1813.5	-273580
1813.65	-273580
1813.8	-273580
1813.95	-273580
1814.1	-273580
1814.25	-273580
1814.4	-273580
1814.55	-273580
1814.7	-273580
1814.85	-273580
1815	-273580
1815.15	-273580
1815.3	-273580
1815.45	-273580
1815.6	-273580
1815.75	-273580
1815.9	-273580
1816.05	-277081
1816.2	-307209
1816.35	-355107
1816.5	-355107
1816.65	-355107
1816.8	-355107
1816.95	-355107
1817.1	-355107
1817.25	-355107
1817.4	-355107
1817.55	-355107
1817.7	-355107
1817.85	-355107
1818	-355107
1818.15	-355107
1818.3	-355107
1818.45	-355107
1818.6	-355107
1818.75	-355107
1818.9	-355107
1819.05	-355107
1819.2	-355107
1819.35	-355107
1819.5	-355107
1819.65	-355107
1819.8	-355107
1819.95	-355107
1820.1	-355107
1820.25	-355107
1820.4	-355107
1820.55	-284902
1820.7	-104758
1820.85	-77930.1
1821	-77930.1
1821.15	-77930.1
1821.3	-77930.1
1821.45	-77930.1
1821.6	-77930.1
1821.75	-77930.1
1821.9	-77930.1
1822.05	-77930.1
1822.2	-77930.1
1822.35	-77930.1
1822.5	-77930.1
1822.65	-77930.1
1822.8	-77930.1
1822.95	-77930.1
1823.1	-77930.1
1823.25	-77930.1
1823.4	-77930.1
1823.55	-77930.1
1823.7	-77930.1
1823.85	-77930.1
1824	-77930.1
1824.15	-77930.1
1824.3	-77930.1
1824.45	-77930.1
1824.6	-77930.1
1824.75	-77930.1
1824.9	61459.9
1825.05	307370
1825.2	382760
1825.35	382760
1825.5	382760
1825.65	382760
1825.8	382760
1825.95	382760
1826.1	382760
1826.25	382760
1826.4	382760
1826.55	382760
1826.7	382760
1826.85	382760
1827	382760
1827.15	382760
1827.3	382760
1827.45	382760
1827.6	382760
1827.75	382760
1827.9	382760
1828.05	382760
1828.2	382760
1828.35	382760
1828.5	382760
1828.65	382760
1828.8	382760
1828.95	382760
1829.1	382760
1829.25	382760
1829.4	382760
1829.55	382760
1829.7	382760
1829.85	382760
1830	430335
1830.15	495894
1830.3	504566
1830.45	504566
1830.6	504566
1830.75	504566
1830.9	504566
1831.05	504566
1831.2	504566
1831.35	504566
1831.5	504566
1831.65	504566
1831.8	504566
1831.95	504566
1832.1	504566
1832.25	504566
1832.4	504566
1832.55	504566
1832.7	504566
1832.85	504566
1833	504566
1833.15	504566
1833.3	504566
1833.45	504566
1833.6	504566
1833.75	504566
1833.9	504566
1834.05	504566
1834.2	504566
1834.35	504566
1834.5	504566
1834.65	504566
1834.8	504566
1834.95	431466
1835.1	264225
1835.25	192948
1835.4	192948
1835.55	192948
1835.7	192948
1835.85	192948
1836	192948
1836.15	192948
1836.3	192948
1836.45	192948
1836.6	192948
1836.75	192948
1836.9	192948
1837.05	192948
1837.2	192948
1837.35	192948
1837.5	192948
1837.65	192948
1837.8	192948
1837.95	192948
1838.1	192948
1838.25	192948
1838.4	192948
1838.55	192948
1838.7	192948
1838.85	192948
1839	192948
1839.15	192948
1839.3	192948
1839.45	192948
1839.6	57412.6
1839.75	-89668
1839.9	-109761
1840.05	-109761
1840.2	-109761
1840.35	-109761
1840.5	-109761
1840.65	-109761
1840.8	-109761
1840.95	-109761
1841.1	-109761
1841.25	-109761
1841.4	-109761
1841.55	-109761
1841.7	-109761
1841.85	-109761
1842	-109761
1842.15	-109761
1842.3	-109761
1842.45	-109761
1842.6	-109761
1842.75	-109761
1842.9	-109761
1843.05	-109761
1843.2	-109761
1843.35	-109761
1843.5	-109761
1843.65	-109761
1843.8	-109761
1843.95	-109761
1844.1	-109761
1844.25	-122954
1844.4	-146039
1844.55	-149472
1844.7	-149472
1844.85	-149472
1845	-149472
1845.15	-149472
1845.3	-149472
1845.45	-149472
1845.6	-149472
1845.75	-149472
1845.9	-149472
1846.05	-149472
1846.2	-149472
1846.35	-149472
1846.5	-149472
1846.65	-149472
1846.8	-149472
1846.95	-149472
1847.1	-149472
1847.25	-149472
1847.4	-149472
1847.55	-149472
1847.7	-149472
1847.85	-149472
1848	-149472
1848.15	-149472
1848.3	-149472
1848.45	-149472
1848.6	-149472
1848.75	-146775
1848.9	-124385
1849.05	-122052
1849.2	-122052
1849.35	-122052
1849.5	-122052
1849.65	-122052
1849.8	-122052
1849.95	-122052
1850.1	-122052
1850.25	-122052
1850.4	-122052
1850.55	-122052
1850.7	-122052
1850.85	-122052
1851	-122052
1851.15	-122052
1851.3	-122052
1851.45	-122052
1851.6	-122052
1851.75	-122052
1851.9	-122052
1852.05	-122052
1852.2	-122052
1852.35	-122052
1852.5	-122052
1852.65	-122052
1852.8	-122052
1852.95	-122052
1853.1	-122052
1853.25	-139060
1853.4	-164011
1853.55	-168615
1853.7	-168615
1853.85	-168615
1854	-168615
1854.15	-168615
1854.3	-168615
1854.45	-168615
1854.6	-168615
1854.75	-168615
1854.9	-168615
1855.05	-168615
1855.2	-168615
1855.35	-168615
1855.5	-168615
1855.65	-168615
1855.8	-168615
1855.95	-168615
1856.1	-168615
1856.25	-168615
1856.4	-168615
1856.55	-168615
1856.7	-168615
1856.85	-168615
1857	-168615
1857.15	-168615
1857.3	-168615
1857.45	-168615
1857.6	-168615
1857.75	-162076
1857.9	-159859
1858.05	-159776
1858.2	-159776
1858.35	-159776
1858.5	-159776
1858.65	-159776
1858.8	-159776
1858.95	-159776
1859.1	-159776
1859.25	-159776
1859.4	-159776
1859.55	-159776
